"Time (s)","Linear Acceleration x (m/s^2)","Linear Acceleration y (m/s^2)","Linear Acceleration z (m/s^2)","Absolute acceleration (m/s^2)"
1.804286300E-2,0.000000000E0,0.000000000E0,0.000000000E0,0.000000000E0
2.301885300E-2,8.884936571E-3,6.244644523E-3,4.542350769E-2,4.670366938E-2
2.799484300E-2,1.871740818E-2,4.717873782E-2,2.695083618E-2,5.746757557E-2
3.297062400E-2,-3.335356712E-3,1.081873178E-1,1.421241760E-1,1.786474230E-1
3.794661400E-2,1.153409481E-2,1.175879240E-1,-2.068138123E-2,1.199486338E-1
4.292260300E-2,6.124427915E-2,5.430936068E-2,-2.610034943E-1,2.735382832E-1
4.789859300E-2,1.537882984E-1,-1.030611526E-2,-2.938146591E-1,3.317892564E-1
5.287458200E-2,2.823836803E-1,-7.044538110E-2,-2.112627029E-1,3.596317899E-1
5.785057200E-2,3.788098097E-1,-1.240213960E-1,4.608249664E-2,4.012502649E-1
6.282656200E-2,4.011850357E-1,-2.462864965E-1,1.317424774E-1,4.888379605E-1
6.780249900E-2,3.153373599E-1,-5.470842719E-1,8.043193817E-2,6.365596184E-1
7.277843700E-2,3.419564366E-1,-2.973016798E-1,2.844324112E-1,5.349993364E-1
7.775437400E-2,2.570322752E-1,-6.107111275E-2,-1.139545441E-2,2.644335979E-1
8.273031200E-2,1.509684324E-2,9.124994278E-2,-5.307016373E-1,5.387009324E-1
8.770624900E-2,-1.653492451E-1,2.347260267E-1,-4.460821152E-1,5.304959320E-1
9.268218700E-2,-2.854362428E-1,3.430564702E-1,-3.014440536E-1,5.385444345E-1
9.765812400E-2,-3.175826073E-1,4.104079604E-1,-5.856857300E-1,7.825095403E-1
1.026340620E-1,-3.083015978E-1,3.937302828E-1,5.412378311E-1,7.368933441E-1
1.076099990E-1,-3.293443322E-1,3.267914355E-1,9.936647415E-1,1.096644860E0
1.125859370E-1,-2.467155457E-1,3.122901320E-1,7.348432541E-1,8.356962936E-1
1.175618740E-1,-2.767592371E-1,3.396233916E-1,4.034614563E-1,5.955844778E-1
1.225378120E-1,-2.854430079E-1,3.805876672E-1,-1.451778412E-1,4.973945002E-1
1.275137490E-1,-2.425619662E-1,3.897698522E-1,-5.878934860E-1,7.459058895E-1
1.324896870E-1,-1.605365872E-1,4.191852510E-1,-5.543899536E-1,7.133277586E-1
1.374656240E-1,-1.787412167E-2,4.261786342E-1,-2.243871689E-1,4.819723166E-1
1.424415620E-1,8.733731508E-2,3.926534355E-1,1.155633926E-1,4.185205189E-1
1.474174990E-1,1.749489307E-1,3.473188281E-1,1.756496429E-1,4.267203930E-1
1.523934370E-1,2.357373834E-1,2.813367844E-1,3.070640564E-2,3.683278207E-1
1.573693740E-1,2.699110508E-1,2.230613232E-1,-9.986591339E-2,3.641174672E-1
1.623453120E-1,3.058898449E-1,1.720207632E-1,-1.196365356E-1,3.707730314E-1
1.673212490E-1,2.702863812E-1,1.136440933E-1,-2.761650085E-2,2.945036145E-1
1.722971870E-1,1.757219434E-1,4.294817895E-2,2.903747559E-2,1.832100501E-1
1.772731240E-1,7.560789585E-2,-2.928823233E-3,3.753757477E-2,8.446420212E-2
1.822490620E-1,2.558177710E-2,-2.964351326E-2,4.579639435E-2,6.025342258E-2
1.872249990E-1,9.967923164E-3,-4.700419307E-2,3.058433533E-2,5.695748612E-2
1.922009370E-1,-4.751622677E-3,-4.108861089E-2,8.562946320E-2,9.509604003E-2
1.971769260E-1,-8.799314499E-3,-7.565267384E-3,1.997623444E-1,2.000991140E-1
2.021529160E-1,-4.867988825E-2,6.363734603E-3,2.736577988E-1,2.780266524E-1
2.071289050E-1,-1.002487242E-1,2.459266037E-2,2.851171494E-1,3.032266388E-1
2.121048950E-1,-1.402886212E-1,2.374183387E-2,2.403984070E-1,2.793491829E-1
2.170808850E-1,-1.228655279E-1,-3.039017320E-4,1.268186569E-1,1.765757685E-1
2.220568740E-1,-1.061759889E-1,-6.075073034E-2,2.008438110E-3,1.223438829E-1
2.270328640E-1,-1.044670045E-1,-1.518913209E-1,-5.907154083E-2,1.935814437E-1
2.320088530E-1,-7.502457500E-2,-2.171193063E-1,-1.115417480E-2,2.299867293E-1
2.369848430E-1,-4.174223542E-2,-2.807294428E-1,4.038333893E-2,2.866744641E-1
2.419608320E-1,-2.356022596E-2,-3.431649804E-1,2.525997162E-2,3.448990493E-1
2.469368220E-1,-1.803755760E-3,-4.184477329E-1,-1.291942596E-2,4.186510125E-1
2.519128120E-1,8.437311649E-2,-4.594824314E-1,1.309394836E-3,4.671666106E-1
2.568888010E-1,1.214600801E-1,-4.903476536E-1,8.563423157E-2,5.123734908E-1
2.618647910E-1,1.389304399E-1,-5.210632682E-1,8.385276794E-2,5.457470873E-1
2.668407800E-1,1.326387525E-1,-5.562866926E-1,-3.991508484E-2,5.732723062E-1
2.718167700E-1,1.686297059E-1,-5.535815954E-1,-7.207775116E-2,5.831670110E-1
2.767927600E-1,1.240828037E-1,-5.841301680E-1,5.607795715E-2,5.997910741E-1
2.817687490E-1,3.866654634E-2,-5.909162164E-1,1.677522659E-1,6.154818432E-1
2.867447390E-1,-7.722559571E-2,-6.118708849E-1,1.598749161E-1,6.371104780E-1
2.917207280E-1,-1.246203482E-1,-5.855041742E-1,1.333484650E-1,6.132920857E-1
2.966967180E-1,-1.286279559E-1,-5.409513116E-1,1.919984818E-1,5.882490030E-1
3.016727070E-1,-1.134237349E-1,-4.599840939E-1,2.496795654E-1,5.355279598E-1
3.066486970E-1,-1.454289258E-1,-3.762760460E-1,2.170114517E-1,4.580689964E-1
3.116246870E-1,-2.335473299E-1,-2.802495956E-1,1.002016068E-1,3.783180582E-1
3.166006760E-1,-2.736481130E-1,-1.953912824E-1,-1.463985443E-2,3.365640628E-1
3.215766660E-1,-2.528034449E-1,-1.072394922E-1,-9.460926056E-2,2.904493116E-1
3.265526550E-1,-1.341154277E-1,-1.772433519E-3,-1.638717651E-1,2.117641256E-1
3.315286450E-1,-7.439517975E-2,9.255284816E-2,-2.084999084E-1,2.399435023E-1
3.365046350E-1,-4.913195968E-2,1.097883508E-1,-2.241792679E-1,2.544086783E-1
3.414806240E-1,-3.907909989E-2,1.029453725E-1,-2.066326141E-1,2.341409041E-1
3.464566140E-1,7.985711098E-3,6.756483763E-2,-6.201362610E-2,9.205687746E-2
3.514326030E-1,7.820767164E-2,6.984987110E-2,1.606540680E-1,1.918467460E-1
3.564085930E-1,1.765150428E-1,8.551049232E-2,2.809867859E-1,3.426706560E-1
3.613845820E-1,2.549885511E-1,1.099003255E-1,2.061176300E-1,3.458058996E-1
3.663605720E-1,3.372356594E-1,1.482489258E-1,1.134567261E-1,3.854582502E-1
3.713365620E-1,4.328331351E-1,2.054620683E-1,3.626060486E-2,4.804935128E-1
3.763125510E-1,4.334196448E-1,2.479321212E-1,-6.351566315E-2,5.033459692E-1
3.812885410E-1,3.120889664E-1,2.428620160E-1,-1.950626373E-1,4.409432097E-1
3.862645300E-1,1.737422943E-1,2.615535259E-1,-3.201770782E-1,4.484528885E-1
3.912405200E-1,1.026831269E-1,2.992342710E-1,-4.294862747E-1,5.334261277E-1
3.962165100E-1,8.814728260E-2,3.368027508E-1,-4.664993286E-1,5.820890482E-1
4.011924990E-1,2.515399456E-2,3.602880836E-1,-4.888610840E-1,6.078037397E-1
4.061684890E-1,1.368337870E-2,3.888315558E-1,-4.731302261E-1,6.125597314E-1
4.111444780E-1,5.329459906E-2,4.364598989E-1,-4.103269577E-1,6.014197951E-1
4.161204680E-1,1.248124838E-1,4.270738661E-1,-3.672418594E-1,5.769201215E-1
4.210964570E-1,2.567632198E-1,3.943770528E-1,-3.672962189E-1,5.969649263E-1
4.260724470E-1,3.827921152E-1,3.527800739E-1,-3.579607010E-1,6.317590106E-1
4.310484370E-1,5.226996541E-1,3.021787703E-1,-1.879796982E-1,6.323474556E-1
4.360244260E-1,6.109310389E-1,2.990444899E-1,8.870601654E-2,6.859541519E-1
4.410004160E-1,6.202255487E-1,2.760528028E-1,2.673940659E-1,7.296468102E-1
4.459764050E-1,6.030972600E-1,2.714563906E-1,2.167510986E-1,6.959855715E-1
4.509523950E-1,5.349894762E-1,2.668834031E-1,-5.109691620E-2,6.000428196E-1
4.559283850E-1,4.580901265E-1,2.681901753E-1,-2.496509552E-1,5.865987842E-1
4.609043740E-1,3.626968861E-1,3.136425316E-1,-2.897462845E-1,5.602442130E-1
4.658803640E-1,2.440998554E-1,3.504938185E-1,-2.915191650E-1,5.171209528E-1
4.708563530E-1,1.210577488E-1,3.782683611E-1,-2.979869843E-1,4.965261064E-1
4.758323430E-1,-1.827120781E-3,3.681768179E-1,-2.996177673E-1,4.746875963E-1
4.808083320E-1,-9.600588679E-2,3.348910213E-1,-3.770084381E-1,5.133268830E-1
4.857843220E-1,-6.199577451E-2,2.978089154E-1,-4.109468460E-1,5.112836164E-1
4.907603120E-1,8.960491419E-2,2.380550504E-1,-3.166074753E-1,4.061274936E-1
4.957363010E-1,2.253855467E-1,1.510085911E-1,-1.142749786E-1,2.943824213E-1
5.007122910E-1,3.461514115E-1,8.376187086E-2,2.044391632E-1,4.106485385E-1
5.056882800E-1,3.764429688E-1,3.070469946E-2,4.962148666E-1,6.236034647E-1
5.106642700E-1,3.782333732E-1,1.488637738E-2,3.726902008E-1,5.312062449E-1
5.156402600E-1,3.422710299E-1,-2.498393878E-2,-4.352378845E-2,3.459305932E-1
5.206162490E-1,2.225299478E-1,-5.430625007E-2,-3.277101517E-1,3.998283256E-1
5.255922390E-1,6.252771616E-2,-7.840618491E-2,3.249168396E-1,3.400414648E-1
5.305682280E-1,-1.422216594E-1,-1.417546123E-1,1.697778702E-1,2.629560719E-1
5.355442180E-1,-2.066180408E-1,-1.811027825E-1,1.820840836E-1,3.296116595E-1
5.405202070E-1,-3.390888572E-1,-2.352580428E-1,1.043459892E0,1.122112359E0
5.454961970E-1,-3.036909401E-1,-2.715797424E-1,7.301683426E-1,8.361396726E-1
5.504721870E-1,-2.133669257E-1,-2.795284390E-1,3.914680481E-1,5.262212709E-1
5.554481760E-1,-1.847456992E-1,-2.165932208E-1,1.033058167E-1,3.028459814E-1
5.604241660E-1,-1.841999590E-1,-1.448074281E-1,-4.337434769E-1,4.929829813E-1
5.654001550E-1,-1.080062687E-1,-9.186575562E-2,-7.524366379E-1,7.656798059E-1
5.703761450E-1,7.644456625E-2,-5.712862313E-2,-5.273294449E-1,5.358953207E-1
5.753521350E-1,3.264351487E-1,-2.186895907E-2,-9.546756744E-2,3.408111121E-1
5.803281240E-1,4.241229892E-1,-5.642339587E-3,1.046733856E-1,4.368851835E-1
5.853041140E-1,3.755935431E-1,-3.206878155E-2,4.191207886E-2,3.792829270E-1
5.902801030E-1,2.718330026E-1,-6.036883220E-3,-1.388549805E-3,2.719035736E-1
5.952560930E-1,1.267676950E-1,5.254957452E-2,1.170654297E-1,1.803768863E-1
6.002320820E-1,-3.599810600E-2,8.138082176E-2,2.725028992E-1,2.866644935E-1
6.052080720E-1,-2.075128555E-1,1.092824042E-1,3.364734650E-1,4.101446351E-1
6.101840620E-1,-3.363700509E-1,1.130382493E-1,2.338218689E-1,4.249648495E-1
6.151600510E-1,-4.185244739E-1,1.409257054E-1,1.368761063E-1,4.623395486E-1
6.201360410E-1,-4.970503449E-1,1.596679688E-1,1.025676727E-1,5.320460818E-1
6.251120300E-1,-4.865565300E-1,1.738354564E-1,5.440235138E-2,5.195340591E-1
6.300880200E-1,-4.540571272E-1,1.641229689E-1,1.147460938E-2,4.829450180E-1
6.350640100E-1,-3.424440324E-1,1.447743922E-1,-2.532005310E-3,3.717982666E-1
6.400399990E-1,-1.991399527E-1,1.017301232E-1,-3.063201904E-2,2.257079070E-1
6.450159890E-1,-2.363604307E-2,5.908721313E-2,-8.224487305E-2,1.039912517E-1
6.499919780E-1,1.319784522E-1,2.175363339E-2,-9.071826935E-2,1.616209665E-1
6.549679680E-1,3.248519301E-1,-8.063744754E-4,-1.608772278E-1,3.625064264E-1
6.599439570E-1,4.735368490E-1,-8.779071271E-3,-2.494497299E-1,5.352937392E-1
6.649199470E-1,5.503231883E-1,-1.683162898E-2,-1.806125641E-1,5.794478524E-1
6.698959370E-1,4.946449399E-1,-2.057772502E-2,-4.118442535E-2,4.967828663E-1
6.748719260E-1,3.650509715E-1,-6.161391735E-3,-2.647590637E-2,3.660616726E-1
6.798479160E-1,2.519155741E-1,7.429823279E-3,-4.045104980E-2,2.552507515E-1
6.848239050E-1,1.643410921E-1,2.056320757E-2,5.485248566E-2,1.744695826E-1
6.897998950E-1,8.791935444E-2,1.438104175E-2,1.588029861E-1,1.820851879E-1
6.947758850E-1,-2.053999901E-2,1.292231120E-2,1.811275482E-1,1.827459067E-1
6.997518740E-1,-1.280448139E-1,-3.117975593E-2,6.555747986E-2,1.471918296E-1
7.047278640E-1,-1.829360127E-1,-6.513006985E-2,-1.534843445E-1,2.475175847E-1
7.097038530E-1,-1.861150861E-1,-1.124918833E-1,-2.234363556E-1,3.117964947E-1
7.146798430E-1,-1.049790084E-1,-1.447624564E-1,-1.882667542E-1,2.596557947E-1
7.196558320E-1,2.941966057E-3,-1.621770412E-1,-1.058425903E-1,1.936819604E-1
7.246318220E-1,1.283906102E-1,-1.699170470E-1,-5.256080627E-2,2.193594995E-1
7.296078120E-1,2.147020698E-1,-1.539661735E-1,-2.345848083E-2,2.652411387E-1
7.345838010E-1,2.862538695E-1,-1.336673796E-1,-3.259849548E-2,3.176018075E-1
7.395597910E-1,3.195293546E-1,-1.328510046E-1,-7.492160797E-2,3.540644647E-1
7.445357800E-1,3.622817397E-1,-1.511940658E-1,-4.567909241E-2,3.952142254E-1
7.495117700E-1,3.530097008E-1,-1.270122826E-1,5.925941467E-2,3.798152801E-1
7.544877600E-1,3.160435557E-1,-8.936307579E-2,8.730125427E-2,3.398393700E-1
7.594637490E-1,1.899351478E-1,-4.305574670E-2,9.131526947E-2,2.150991309E-1
7.644397390E-1,-9.966313839E-3,-1.654683053E-2,1.759490967E-1,1.770062418E-1
7.694157280E-1,-2.355079651E-1,4.697127268E-3,2.550544739E-1,3.471870523E-1
7.743917180E-1,-3.067531288E-1,5.416245759E-2,2.385015488E-1,3.923188022E-1
7.793677070E-1,-3.585634530E-1,6.998007745E-2,2.410936356E-1,4.377112086E-1
7.843436970E-1,-3.722102940E-1,6.697531044E-2,1.914491653E-1,4.238855719E-1
7.893196870E-1,-3.388755918E-1,5.975361913E-2,1.137685776E-1,3.624230276E-1
7.942956760E-1,-2.830542028E-1,4.370788485E-2,5.104160309E-2,2.909214777E-1
7.992716660E-1,-2.002885938E-1,2.354449779E-2,-1.109600067E-2,2.019727343E-1
8.042476550E-1,-1.096431315E-1,-9.632613510E-4,-1.432418823E-3,1.096567188E-1
8.092236450E-1,-3.007465601E-2,-1.104949694E-2,-6.045341492E-3,3.260555889E-2
8.141996350E-1,2.436691523E-2,-4.972302169E-2,-5.331134796E-2,7.686498074E-2
8.191756240E-1,7.303971052E-2,-9.294918925E-2,-1.191425323E-1,1.678371059E-1
8.241516140E-1,1.350374818E-1,-1.263905317E-1,-1.416559219E-1,2.329722906E-1
8.291276030E-1,2.011644840E-1,-1.359804273E-1,-1.259860992E-1,2.735513177E-1
8.341035930E-1,2.052677274E-1,-1.458118558E-1,-1.057119370E-1,2.730768222E-1
8.390795820E-1,1.578246951E-1,-1.702148169E-1,-2.866840363E-2,2.338879981E-1
8.440555720E-1,9.271031618E-2,-1.568239778E-1,9.990882874E-2,2.077756887E-1
8.490315620E-1,2.901452780E-2,-1.391317546E-1,1.561317444E-1,2.111317351E-1
8.540075510E-1,-3.322267532E-2,-7.427587360E-2,1.738395691E-1,1.919396971E-1
8.589835410E-1,-1.225556433E-1,-4.786766320E-2,1.913442612E-1,2.322150408E-1
8.639595300E-1,-1.824460924E-1,-3.094414063E-2,1.849489212E-1,2.616299293E-1
8.689355200E-1,-1.758210957E-1,1.461655181E-2,1.406478882E-1,2.256291863E-1
8.739115100E-1,-1.702294052E-1,2.229934931E-2,2.555084229E-2,1.735746436E-1
8.788874990E-1,-1.565777957E-1,5.894375965E-2,-9.324741364E-2,1.915360360E-1
8.838634890E-1,-9.704840183E-2,8.615919948E-2,-1.539783478E-1,2.013731152E-1
8.888394780E-1,-4.394727945E-2,8.475930989E-2,-1.571455002E-1,1.838755346E-1
8.938154680E-1,3.345906734E-3,5.488259345E-2,-1.270046234E-1,1.383960568E-1
8.987914570E-1,5.958849192E-2,1.111805253E-2,-1.018505096E-1,1.185239460E-1
9.037674470E-1,1.583054066E-1,2.017346956E-2,-5.792331696E-2,1.697724397E-1
9.087434370E-1,3.038392663E-1,1.033325586E-2,-3.336238861E-2,3.058400315E-1
9.137194260E-1,4.008300304E-1,4.807635024E-2,4.844665527E-4,4.037032121E-1
9.186954160E-1,5.068699121E-1,6.625977904E-2,-5.619239807E-2,5.142616569E-1
9.236714050E-1,5.407989621E-1,6.990168989E-2,-1.456317902E-1,5.644097642E-1
9.286473950E-1,4.796814919E-1,4.983957484E-2,-1.583595276E-1,5.075983223E-1
9.336233850E-1,3.674061894E-1,2.047271840E-2,-7.129859924E-2,3.748198641E-1
9.385993740E-1,2.429012060E-1,2.921347134E-2,1.289272308E-1,2.765441260E-1
9.435753640E-1,9.687405825E-2,6.586900353E-2,3.463954926E-1,3.656680818E-1
9.485513530E-1,-9.433686733E-3,1.012704223E-1,2.771062851E-1,2.951822930E-1
9.535273430E-1,-1.203238368E-1,1.264785230E-1,-3.471250534E-1,3.885491541E-1
9.585033320E-1,-2.221288979E-1,1.432738900E-1,-1.099019051E0,1.130359026E0
9.634793220E-1,-2.863780558E-1,1.762316227E-1,-8.188829422E-1,8.852340079E-1
9.684553120E-1,-3.884350657E-1,1.808001399E-1,-3.511152267E-1,5.539425903E-1
9.734313010E-1,-3.645356297E-1,1.852272302E-1,-1.817712784E-1,4.474775411E-1
9.784072910E-1,-3.218922019E-1,1.176269501E-1,6.224660873E-1,7.105735141E-1
9.833832800E-1,-2.627178729E-1,3.444750607E-2,9.643030167E-1,1.000043809E0
9.883592700E-1,-6.808131933E-2,2.540191635E-3,5.864019394E-1,5.903462993E-1
9.933352600E-1,4.926377535E-2,1.734481752E-2,2.591228485E-1,2.643339041E-1
9.983112490E-1,-2.900671959E-2,-1.136999577E-2,-2.743568420E-1,2.761201611E-1
1.003287239E0,-2.116587162E-1,-1.251462400E-1,-4.899435043E-1,5.481839390E-1
1.008263228E0,-3.121176064E-1,-2.183676511E-1,-3.380899429E-1,5.093197824E-1
1.013239218E0,-3.913109601E-1,-2.532055378E-1,7.077217102E-3,4.661409645E-1
1.018215207E0,-5.292186737E-1,-3.252637386E-1,2.352237701E-1,6.642282185E-1
1.023191197E0,-6.915988922E-1,-4.147658348E-1,1.668395996E-1,8.235139206E-1
1.028167187E0,-5.328562856E-1,-3.769724369E-1,-1.911258698E-1,6.801272950E-1
1.033143176E0,-2.286128104E-1,-2.317879498E-1,-3.517465591E-1,4.792860447E-1
1.038119166E0,-4.492497444E-2,-1.677870601E-1,-4.442462921E-1,4.769963511E-1
1.043095155E0,2.385423183E-1,-9.948734194E-3,-2.599802017E-1,3.529746737E-1
1.048071145E0,2.764781713E-1,8.336892724E-2,3.932771683E-1,4.879113530E-1
1.053047135E0,2.987241745E-1,1.034307331E-1,6.565580368E-1,7.286991867E-1
1.058023124E0,2.796911597E-1,1.274190098E-1,5.613927841E-1,6.400192239E-1
1.062999114E0,2.673117518E-1,1.700451672E-1,3.054466248E-1,4.400779160E-1
1.067975103E0,2.175614834E-1,2.360235006E-1,1.323213577E-1,3.472017189E-1
1.072951093E0,1.628093123E-1,2.632738054E-1,5.566501617E-2,3.145132156E-1
1.077927082E0,1.549193859E-1,2.424747795E-1,5.096340179E-2,2.922179035E-1
1.082903072E0,1.562332511E-1,1.931745112E-1,6.057929993E-2,2.557246021E-1
1.087879062E0,1.533027887E-1,1.158793792E-1,6.533145905E-2,2.029728433E-1
1.092855051E0,1.419801116E-1,4.417320341E-2,7.471084595E-2,1.664071347E-1
1.097831041E0,1.127864718E-1,1.550393179E-3,5.069065094E-2,1.236637944E-1
1.102807030E0,9.859538078E-2,-4.080830887E-2,-8.238315582E-2,1.348085737E-1
1.107783020E0,8.441978693E-2,-5.921811610E-2,-1.668529510E-1,1.961463560E-1
1.112759010E0,5.560272932E-2,-7.761675864E-2,-1.556043625E-1,1.825616125E-1
1.117734999E0,6.444895267E-2,-9.611556679E-2,-1.586446762E-1,1.963670109E-1
1.122710989E0,1.061015725E-1,-1.146064699E-1,-1.711225510E-1,2.316789030E-1
1.127686978E0,1.660935879E-1,-1.234897077E-1,-1.834669113E-1,2.765807213E-1
1.132662968E0,2.447861433E-1,-1.225970685E-1,-2.099676132E-1,3.450169500E-1
1.137638957E0,3.277782798E-1,-1.072660610E-1,-2.315139771E-1,4.153833532E-1
1.142614947E0,4.291769266E-1,-5.414049327E-2,-2.766275406E-1,5.134655038E-1
1.147590937E0,5.060924292E-1,-1.576460339E-2,-4.210901260E-1,6.585552094E-1
1.152566926E0,5.586779118E-1,1.293803193E-2,-4.836235046E-1,7.390399827E-1
1.157542916E0,6.349293590E-1,4.179654643E-2,-4.364471436E-1,7.716011608E-1
1.162518905E0,6.636774540E-1,7.077167928E-2,-3.042421341E-1,7.335118743E-1
1.167494895E0,6.791720986E-1,1.185907125E-1,-1.400098801E-1,7.035206203E-1
1.172470885E0,6.626312137E-1,1.562004983E-1,-1.525592804E-2,6.809636292E-1
1.177446874E0,6.431199312E-1,2.118234932E-1,1.333808899E-2,6.772372870E-1
1.182422864E0,5.824189782E-1,2.569726408E-1,-7.239818573E-2,6.406936098E-1
1.187398853E0,4.852098227E-1,2.731051743E-1,-1.337680817E-1,5.726333102E-1
1.192374843E0,3.563910723E-1,2.987683117E-1,-1.519689560E-1,4.892562356E-1
1.197350832E0,2.151173949E-1,3.006434441E-1,-9.885787964E-2,3.826680734E-1
1.202326822E0,5.209773779E-2,3.311160803E-1,-3.676891327E-2,3.372002163E-1
1.207302812E0,-8.995419741E-2,3.234033585E-1,-3.698253632E-2,3.377117082E-1
1.212278801E0,-2.445042133E-1,3.158164024E-1,-1.824855804E-2,3.998191094E-1
1.217254791E0,-3.356769681E-1,3.036569059E-1,2.404308319E-2,4.532820460E-1
1.222230780E0,-4.355353415E-1,2.678152025E-1,1.467084885E-1,5.319204799E-1
1.227206770E0,-4.727790952E-1,2.321330607E-1,2.493610382E-1,5.827407297E-1
1.232182760E0,-5.575039387E-1,1.868041009E-1,3.037099838E-1,6.617750131E-1
1.237158749E0,-6.136465073E-1,1.320196241E-1,2.864418030E-1,6.899566099E-1
1.242134739E0,-6.463997364E-1,6.322066486E-2,2.456521988E-1,6.943878415E-1
1.247110728E0,-6.701020598E-1,-1.437350735E-2,2.242631912E-1,7.067795606E-1
1.252086718E0,-6.703797579E-1,-8.167880774E-2,2.458362579E-1,7.186904154E-1
1.257062707E0,-6.757651567E-1,-1.291822344E-1,2.862558365E-1,7.451771606E-1
1.262038697E0,-6.433254480E-1,-1.761420667E-1,2.883701324E-1,7.266711726E-1
1.267014687E0,-5.591818094E-1,-1.752799749E-1,2.857418060E-1,6.519629938E-1
1.271990676E0,-4.381637275E-1,-1.839938760E-1,2.736749649E-1,5.483969228E-1
1.276966666E0,-3.090685904E-1,-1.736780852E-1,2.474966049E-1,4.323679455E-1
1.281942655E0,-1.862599850E-1,-1.539488733E-1,1.883344650E-1,3.063705409E-1
1.286918645E0,-8.382773399E-2,-1.391418427E-1,1.581859589E-1,2.267384814E-1
1.291894635E0,-6.503939629E-3,-1.148793921E-1,1.425743103E-1,1.832130179E-1
1.296870624E0,2.217739820E-2,-9.558417648E-2,1.651210785E-1,1.920758765E-1
1.301846614E0,6.935769320E-2,-7.651750743E-2,2.017459869E-1,2.266425860E-1
1.306822603E0,9.245419502E-2,-5.777220055E-2,2.523088455E-1,2.748547960E-1
1.311798593E0,8.237618208E-2,-4.889004678E-2,2.549457550E-1,2.723479577E-1
1.316774582E0,4.440599680E-2,-4.978908226E-2,2.195329666E-1,2.294462218E-1
1.321750572E0,2.620935440E-2,-5.563547462E-2,1.891279221E-1,1.988758588E-1
1.326726562E0,3.827989101E-3,-5.219819397E-2,1.494493484E-1,1.583490218E-1
1.331702551E0,-6.094866991E-2,-5.849727243E-2,1.338338852E-1,1.582661684E-1
1.336678541E0,-1.156887412E-1,-5.550513789E-2,1.230993271E-1,1.778149305E-1
1.341654530E0,-1.179450750E-1,-7.184589654E-2,6.973743439E-2,1.547132293E-1
1.346630520E0,-1.534742713E-1,-9.305326641E-2,1.682662964E-2,1.802675728E-1
1.351606510E0,-1.841656566E-1,-1.188805699E-1,-6.886577606E-2,2.297652586E-1
1.356582499E0,-1.767182350E-1,-1.110316440E-1,-1.395912170E-1,2.510837877E-1
1.361558489E0,-1.408435106E-1,-9.343051165E-2,-1.622428894E-1,2.342838239E-1
1.366534478E0,-1.100177765E-1,-8.040399104E-2,-1.657142639E-1,2.145458697E-1
1.371510468E0,-7.470208406E-2,-5.766852945E-2,-1.454172134E-1,1.733557805E-1
1.376486457E0,-4.437887669E-2,-4.440601915E-2,-5.881500244E-2,8.602664555E-2
1.381462447E0,4.889965057E-3,-2.644269913E-2,1.790018082E-1,1.810104290E-1
1.386438437E0,6.381171942E-2,-3.294268996E-2,5.335121155E-1,5.383236329E-1
1.391414426E0,5.117017031E-2,-1.688782126E-2,5.621681213E-1,5.647447047E-1
1.396390416E0,-4.312169552E-2,-3.977754712E-2,-1.880817413E-1,1.970189719E-1
1.401366405E0,-1.477253437E-1,-8.476008475E-2,-1.368830681E0,1.379385545E0
1.406342395E0,-9.625065327E-2,-1.117062718E-1,-1.542471886E0,1.549503791E0
1.411318385E0,1.012838483E-1,-1.122815087E-1,-1.011851311E0,1.023087792E0
1.416294374E0,4.075765610E-1,-1.171238646E-1,-1.960859299E-1,4.672112420E-1
1.421270364E0,6.077815294E-1,-1.143912598E-1,1.334596634E0,1.470928932E0
1.426246353E0,5.775746703E-1,-1.022418439E-1,1.841193199E0,1.932365983E0
1.431222343E0,4.986958504E-1,-6.629383564E-2,1.109107971E0,1.217872290E0
1.436198332E0,4.632137418E-1,-2.311470360E-2,-1.572513580E-2,4.640566129E-1
1.441174322E0,4.149196744E-1,-7.633790374E-3,-1.164515495E0,1.236249550E0
1.446150312E0,3.496862650E-1,1.120622456E-2,-1.577374458E0,1.615709208E0
1.451126301E0,3.249920011E-1,3.807199001E-2,-1.013544083E0,1.065054405E0
1.456102291E0,2.601304650E-1,6.159383059E-2,-6.999206543E-2,2.763341239E-1
1.461078280E0,2.170143127E-1,7.545802742E-2,4.618978500E-1,5.158863729E-1
1.466054270E0,1.705932617E-1,7.468891889E-2,3.624744415E-1,4.075146823E-1
1.471030260E0,4.776525497E-2,7.907491177E-2,-7.319831848E-2,1.178658351E-1
1.476006249E0,-1.947116852E-2,8.903174847E-2,-3.626022339E-1,3.738798720E-1
1.480982239E0,-1.222124100E-1,7.111839205E-2,-3.597211838E-1,3.865139440E-1
1.485958228E0,-2.115991116E-1,2.041885257E-2,-9.081649780E-2,2.311682284E-1
1.490934218E0,-3.193385899E-1,-6.162911654E-3,1.521139145E-1,3.537707725E-1
1.495910207E0,-3.825751245E-1,-9.004786611E-3,3.027334213E-1,4.879470632E-1
1.500886197E0,-3.871763647E-1,6.895683706E-3,3.333034515E-1,5.109249246E-1
1.505862187E0,-3.770337999E-1,4.137408733E-2,2.543725967E-1,4.566965287E-1
1.510838176E0,-3.198009431E-1,7.527323067E-2,1.428861618E-1,3.582668806E-1
1.515814166E0,-2.590177357E-1,5.176582187E-2,1.178579330E-1,2.892410415E-1
1.520790155E0,-2.042100430E-1,3.315559030E-2,1.263341904E-1,2.424074307E-1
1.525766145E0,-1.598705649E-1,1.449494064E-2,1.775169373E-1,2.393344184E-1
1.530742135E0,-1.112554073E-1,-1.861178875E-2,1.855468750E-1,2.171446687E-1
1.535718124E0,-1.103246808E-1,-3.280869126E-2,1.507625580E-1,1.896768154E-1
1.540694114E0,-7.600879669E-2,-7.087934762E-2,7.826995850E-2,1.301053631E-1
1.545670103E0,-3.723233938E-2,-7.568670064E-2,4.437255859E-2,9.530817229E-2
1.550646093E0,-4.141402245E-2,-1.045452505E-1,8.673000336E-2,1.420102959E-1
1.555622082E0,-2.176886797E-2,-1.050173864E-1,1.477279663E-1,1.825543401E-1
1.560598072E0,2.186435461E-2,-9.173592180E-2,2.081928253E-1,2.285558616E-1
1.565574062E0,7.039701939E-2,-6.947657466E-2,1.921443939E-1,2.161069246E-1
1.570550051E0,1.191433668E-1,-3.821510077E-2,1.239538193E-1,1.761251972E-1
1.575526041E0,1.347591877E-1,-2.156297117E-2,7.528972626E-2,1.558638613E-1
1.580502030E0,1.648007035E-1,-1.460595429E-2,4.125404358E-2,1.705124684E-1
1.585478020E0,1.567080021E-1,-3.172188997E-3,-3.048896790E-2,1.596779192E-1
1.590454010E0,1.341288686E-1,7.956504822E-3,-2.060756683E-1,2.460102446E-1
1.595429999E0,1.257774830E-1,1.924669743E-2,-3.659391403E-1,3.874298195E-1
1.600405989E0,1.269418001E-1,-2.082586288E-3,-3.867683411E-1,4.070728527E-1
1.605381978E0,1.329477429E-1,1.380279660E-3,-2.792320251E-1,3.092693509E-1
1.610357968E0,1.295090914E-1,1.467180252E-2,-1.346149445E-1,1.873740906E-1
1.615333957E0,1.118534207E-1,4.214964062E-2,-1.019668579E-2,1.199656298E-1
1.620309947E0,9.455066919E-2,6.919272244E-2,5.144214630E-2,1.279599793E-1
1.625285937E0,9.194660187E-2,1.004501879E-1,6.031608582E-2,1.489377321E-1
1.630261926E0,8.017623425E-2,1.407897472E-1,3.110885620E-2,1.649780058E-1
1.635237916E0,3.092789650E-2,1.190626770E-1,2.115249634E-3,1.230322321E-1
1.640213905E0,-3.562152386E-3,1.070688367E-1,1.849174500E-3,1.071440347E-1
1.645189895E0,-4.736799002E-2,7.150226831E-2,1.109027863E-2,8.648291815E-2
1.650165885E0,-1.053657532E-1,5.049207807E-2,1.284599304E-3,1.168462327E-1
1.655141874E0,-1.205583215E-1,5.346532166E-2,-2.740383148E-2,1.346989958E-1
1.660117864E0,-1.312397122E-1,4.228906333E-2,-2.258872986E-2,1.397228602E-1
1.665093853E0,-1.326447725E-1,5.025474727E-2,-3.545761108E-3,1.418899141E-1
1.670069843E0,-1.436911821E-1,2.961842716E-2,2.484798431E-2,1.488013084E-1
1.675045832E0,-1.690977812E-1,4.224240780E-2,4.827404022E-2,1.808559194E-1
1.680021822E0,-1.564612985E-1,2.622891963E-2,4.777336121E-2,1.656815867E-1
1.684997812E0,-1.584331989E-1,1.979400218E-2,2.355289459E-2,1.613927504E-1
1.689973801E0,-1.132125854E-1,1.356680691E-2,-9.942054749E-3,1.144551974E-1
1.694949791E0,-1.114650369E-1,2.653622627E-2,-3.986358643E-4,1.145809088E-1
1.699925780E0,-9.109777212E-2,2.060580254E-2,1.383495331E-2,9.441826686E-2
1.704901770E0,-7.115679979E-2,1.487563550E-2,4.695892334E-2,8.654314051E-2
1.709877760E0,-4.198569059E-2,1.398266852E-2,6.556701660E-2,7.910339373E-2
1.714853749E0,-8.255302906E-3,2.258361876E-2,7.452011108E-2,7.830336403E-2
1.719829739E0,1.100230217E-2,4.054792225E-2,5.965328217E-2,7.296368086E-2
1.724805728E0,5.399966240E-2,7.259409130E-2,2.590656281E-2,9.411171886E-2
1.729781718E0,3.976374865E-2,6.647078693E-2,-7.567405701E-3,7.782536123E-2
1.734757707E0,3.504371643E-2,4.144211113E-2,-1.701354980E-2,5.687680998E-2
1.739733697E0,3.026258945E-2,2.621158957E-2,-2.162742615E-2,4.550403620E-2
1.744709687E0,3.501754999E-2,6.465956569E-3,-7.209777832E-3,3.633205607E-2
1.749685676E0,3.983592987E-2,2.002139390E-2,-2.615833282E-2,5.169154571E-2
1.754661666E0,6.866633892E-2,4.969418049E-3,-1.647853851E-2,7.079056044E-2
1.759637655E0,6.442975998E-2,-5.263566971E-3,-1.640224457E-2,6.669282372E-2
1.764613645E0,7.968664169E-2,-5.917713046E-3,-6.861686707E-3,8.020014300E-2
1.769589635E0,6.183522940E-2,-2.081532776E-2,-2.165794373E-3,6.528065663E-2
1.774565624E0,5.853265524E-2,-2.619469166E-2,-7.014274597E-3,6.450917492E-2
1.779541614E0,4.095971584E-2,-4.566822946E-2,-2.131748199E-2,6.494398003E-2
1.784517603E0,3.767496347E-2,-4.123347253E-2,-5.923652649E-2,8.141601931E-2
1.789493593E0,2.471458912E-2,-3.662966192E-2,-8.258342743E-2,9.366197485E-2
1.794469582E0,-7.442474365E-3,-3.195433319E-2,-8.672332764E-2,9.272219470E-2
1.799445572E0,1.264351606E-2,-3.196002543E-2,-8.606529236E-2,9.267435607E-2
1.804421562E0,-1.033139229E-2,-2.720691264E-2,-9.489917755E-2,9.926130999E-2
1.809397551E0,4.821598530E-3,-2.719040215E-2,-1.036567688E-1,1.072720444E-1
1.814373541E0,3.894346952E-2,-1.751579344E-2,-9.335613251E-2,1.026584839E-1
1.819349530E0,4.459691048E-2,-1.245768368E-2,-3.568077087E-2,5.845678504E-2
1.824325520E0,4.122078419E-2,-1.678435504E-2,1.354427338E-1,1.425678847E-1
1.829301510E0,4.288059473E-2,-2.619047463E-2,4.048471451E-1,4.079533028E-1
1.834277499E0,6.178975105E-3,-1.739947498E-2,5.105962753E-1,5.109300127E-1
1.839253489E0,-7.439404726E-2,-1.921267807E-2,8.849334717E-2,1.171950245E-1
1.844229478E0,-1.218312979E-1,-4.402213544E-2,-7.906579971E-1,8.011996518E-1
1.849205468E0,-1.114808321E-1,-7.992863655E-2,-1.401393890E0,1.408091403E0
1.854181457E0,-7.272708416E-2,-1.134746671E-1,-8.009529114E-1,8.122138235E-1
1.859157447E0,-1.458513737E-2,-5.666626990E-2,-4.049959183E-1,4.092010340E-1
1.864133437E0,1.054712534E-1,-6.573915482E-3,7.046670914E-1,7.125469187E-1
1.869109426E0,5.183941126E-2,-1.713763177E-2,1.487096786E0,1.488098745E0
1.874085416E0,-1.015824080E-2,-3.142935038E-2,1.028724670E0,1.029254799E0
1.879061405E0,1.019365191E-1,-9.973511100E-3,5.838546753E-1,5.927704503E-1
1.884037395E0,2.385855913E-1,3.882275522E-2,2.863788605E-2,2.434140900E-1
1.889013385E0,2.839679122E-1,3.632222116E-2,-6.315088272E-1,6.933689334E-1
1.893989374E0,2.913829684E-1,-1.302555203E-3,-8.164472580E-1,8.668862994E-1
1.898965364E0,2.358058095E-1,-2.179612219E-2,-3.305883408E-1,4.066547698E-1
1.903941353E0,1.205057502E-1,-3.619726002E-2,2.223300934E-1,2.554653555E-1
1.908917343E0,-3.735601902E-3,-1.240123808E-2,3.670530319E-1,3.672814638E-1
1.913893332E0,-1.050477624E-1,1.953363419E-3,4.059123993E-2,1.126343499E-1
1.918869322E0,-1.132215858E-1,7.404233515E-2,-3.969554901E-1,4.193746010E-1
1.923845312E0,-1.198685467E-1,8.981564641E-2,-6.597251892E-1,6.765150731E-1
1.928821301E0,-1.580348909E-1,2.125646174E-2,-6.304759979E-1,6.503282616E-1
1.933797291E0,-1.695502102E-1,-4.126828909E-2,-3.734169006E-1,4.121777859E-1
1.938773280E0,-1.815322340E-1,-6.503505260E-2,-4.249191284E-2,1.974565083E-1
1.943749270E0,-1.452613175E-1,-6.991849840E-2,2.713956833E-1,3.156660636E-1
1.948725260E0,-1.413492262E-1,-4.209294170E-2,4.069099426E-1,4.328130323E-1
1.953701249E0,-1.554344594E-1,-2.461868525E-2,4.082841873E-1,4.375636279E-1
1.958677239E0,-1.640876830E-1,-2.189780772E-2,3.336420059E-1,3.724530437E-1
1.963653228E0,-1.820625365E-1,-2.895629406E-2,2.453737259E-1,3.069095950E-1
1.968629218E0,-1.763520539E-1,-6.464901567E-2,1.388635635E-1,2.335864538E-1
1.973605207E0,-1.853491962E-1,-1.192855686E-1,7.126045227E-2,2.316493545E-1
1.978581197E0,-1.327485740E-1,-1.595235318E-1,6.122112274E-2,2.163745987E-1
1.983557187E0,-6.634414196E-2,-1.571913958E-1,8.451271057E-2,1.904024115E-1
1.988533176E0,3.300058842E-2,-1.365409046E-1,1.360950470E-1,1.955871143E-1
1.993509166E0,1.035404205E-1,-9.768308699E-2,1.634817123E-1,2.167691732E-1
1.998485155E0,1.551162601E-1,-4.552157223E-2,1.573705673E-1,2.256075423E-1
2.003461145E0,1.830363870E-1,-3.607437015E-3,9.904861450E-2,2.081488904E-1
2.008437135E0,2.062861323E-1,-4.940256476E-3,3.644752502E-2,2.095394870E-1
2.013413124E0,2.152519822E-1,3.386199474E-3,2.846717834E-3,2.152974361E-1
2.018389114E0,2.052537203E-1,1.643669605E-2,2.758979797E-3,2.059292758E-1
2.023365103E0,1.714434028E-1,1.037783921E-2,-2.067565918E-3,1.717696560E-1
2.028341093E0,1.281604171E-1,9.014919400E-3,-4.482364655E-2,1.360717479E-1
2.033317082E0,9.422010183E-2,-2.039670944E-3,-1.916532516E-1,2.135709641E-1
2.038293072E0,7.929921150E-2,-1.749293506E-2,-2.945108414E-1,3.055012331E-1
2.043269062E0,5.970263481E-2,-1.790232956E-2,-2.778062820E-1,2.847125363E-1
2.048245051E0,2.602308989E-2,-2.723573148E-2,-1.615314484E-1,1.658655934E-1
2.053221041E0,2.591514587E-2,-2.193707228E-2,-1.299476624E-2,3.635510797E-2
2.058197030E0,4.500710964E-2,5.439382792E-2,1.010551453E-1,1.232739665E-1
2.063173020E0,6.920319796E-2,8.678598702E-2,1.286573410E-1,1.699223397E-1
2.068149010E0,2.713072300E-2,6.146292388E-2,7.528686523E-2,1.009052983E-1
2.073124999E0,1.874899864E-2,5.514878035E-2,3.185367584E-2,6.638952921E-2
2.078100989E0,1.053756475E-2,7.738813758E-2,1.251983643E-2,7.909937050E-2
2.083076978E0,1.669007540E-2,6.620919704E-2,2.183532715E-2,7.168680424E-2
2.088052968E0,3.641068935E-3,5.982697010E-2,3.108310699E-2,6.751802185E-2
2.093028957E0,-4.602074623E-3,4.869788885E-2,1.651573181E-2,5.162783035E-2
2.098004947E0,-1.293182373E-2,3.291629255E-2,6.829261780E-3,3.601878949E-2
2.102980937E0,-2.604359388E-2,3.146021068E-2,-7.517814636E-3,4.152747495E-2
2.107956926E0,-3.434997797E-2,3.476801515E-2,2.000808716E-3,4.891563246E-2
2.112932916E0,-5.208426714E-2,4.279671609E-2,1.618862152E-2,6.932821402E-2
2.117908905E0,-6.962013245E-2,3.171624243E-2,2.550792694E-2,8.064451136E-2
2.122884895E0,-6.336939335E-2,3.971882164E-2,2.525901794E-2,7.893847474E-2
2.127860885E0,-6.677162647E-2,3.346388042E-2,-1.296997070E-2,7.580568273E-2
2.132836874E0,-7.019704580E-2,2.731254697E-2,-1.288890839E-2,7.641808962E-2
2.137812812E0,-6.899893284E-2,4.035776854E-2,1.442909241E-3,7.994800936E-2
2.142788749E0,-5.836623907E-2,4.390342534E-2,1.412391663E-3,7.304877459E-2
2.147764687E0,-3.357577324E-2,7.601033151E-2,-1.286602020E-2,8.408589371E-2
2.152740624E0,9.953558445E-3,1.221886426E-1,-2.702331543E-2,1.255364381E-1
2.157716562E0,-2.765297890E-2,7.780256867E-2,-4.106044769E-2,9.221652400E-2
2.162692499E0,-4.130762815E-2,3.394408524E-2,-4.073143005E-2,6.721287422E-2
2.167668437E0,-2.155935764E-2,3.334841132E-2,-2.423286438E-3,3.978435317E-2
2.172644374E0,-1.617068052E-2,5.185782909E-2,3.556060791E-2,6.492520452E-2
2.177620312E0,-1.072394848E-2,5.596750975E-2,3.523445129E-2,6.699874459E-2
2.182596249E0,-1.961958408E-2,5.529442430E-2,3.491306305E-2,6.827388527E-2
2.187572187E0,-9.599626064E-3,3.562664986E-2,1.364707947E-3,3.692253280E-2
2.192548124E0,3.893375397E-4,1.617109776E-2,-2.715969086E-2,3.161178252E-2
2.197524062E0,8.485913277E-4,6.377846003E-3,-5.070114136E-2,5.110775638E-2
2.202499999E0,6.051540375E-3,1.417875290E-3,-5.505275726E-2,5.540250530E-2
2.207475937E0,1.764595509E-3,-3.394648433E-3,-4.037857056E-2,4.055941809E-2
2.212451874E0,1.186186075E-2,-1.771554351E-2,-3.058147430E-2,3.727962973E-2
2.217427812E0,3.152632713E-2,-3.191708028E-2,-1.612663269E-2,4.767260847E-2
2.222403749E0,3.223890066E-2,-3.650328517E-2,7.692337036E-3,4.930525928E-2
2.227379687E0,2.829998732E-2,-4.579976201E-2,-2.567481995E-2,5.964649077E-2
2.232355624E0,3.384041786E-2,-6.451887637E-2,-3.976726532E-2,8.300177517E-2
2.237331562E0,1.068824530E-2,-5.928489566E-2,-4.423618317E-2,7.473805819E-2
2.242307499E0,1.121306419E-2,-7.303392142E-2,-5.815029144E-2,9.402735177E-2
2.247283437E0,1.147413254E-2,-3.922860324E-2,-5.768680573E-2,7.069870285E-2
2.252259374E0,1.152616739E-2,-1.519890130E-2,-6.196308136E-2,6.483272775E-2
2.257235312E0,2.587568760E-2,-5.618050694E-3,-7.570362091E-2,8.020069776E-2
2.262211249E0,3.551059961E-2,1.348601282E-2,-6.559848785E-2,7.580261760E-2
2.267187239E0,2.178680897E-2,4.194095731E-3,-2.711963654E-2,3.503898072E-2
2.272163228E0,2.273166180E-2,-4.814565182E-3,8.224296570E-2,8.546235366E-2
2.277139218E0,4.882574081E-3,-1.865722239E-2,2.761583328E-1,2.768309164E-1
2.282115207E0,-2.773225307E-2,-3.300224245E-2,3.592948914E-1,3.618715861E-1
2.287091197E0,-6.156945229E-2,-2.879714966E-2,-3.775882721E-2,7.775475751E-2
2.292067187E0,-1.104019582E-1,-7.613342255E-2,-6.024026871E-1,6.171498099E-1
2.297043176E0,-7.268834114E-2,-1.065011621E-1,-1.152926445E0,1.160114425E0
2.302019166E0,3.211396933E-2,-8.691273630E-2,-5.260791779E-1,5.341764054E-1
2.306995155E0,8.019292355E-2,-3.528100252E-2,6.225681305E-2,1.074782066E-1
2.311971145E0,1.670966744E-1,4.252523184E-3,3.464994431E-1,3.847093014E-1
2.316947135E0,6.634265184E-2,3.085300326E-3,8.754425049E-1,8.779581117E-1
2.321923124E0,-5.796611309E-2,4.148080945E-3,6.168479919E-1,6.195794719E-1
2.326899114E0,4.700547457E-2,3.654456139E-2,3.369770050E-1,3.421966124E-1
2.331875103E0,2.466822267E-1,6.771084666E-2,2.778635025E-1,3.776837377E-1
2.336851093E0,3.405707479E-1,5.125075579E-2,4.997253418E-4,3.444057549E-1
2.341827082E0,3.551042080E-1,1.298795640E-2,-2.512798309E-1,4.352117174E-1
2.346803072E0,3.182538152E-1,-1.800912619E-2,-1.024923325E-1,3.348350306E-1
2.351779062E0,1.899399757E-1,-2.348352969E-2,1.635446548E-1,2.517449596E-1
2.356755051E0,2.956694365E-2,-9.213283658E-3,1.756858826E-1,1.783945573E-1
2.361731041E0,-1.222845614E-1,1.019261777E-2,-1.682682037E-1,2.082584735E-1
2.366707030E0,-1.912625432E-1,3.991578519E-2,-5.993614197E-1,6.304036340E-1
2.371683020E0,-1.689733863E-1,9.907189012E-2,-8.461885452E-1,8.685633533E-1
2.376659010E0,-1.553708017E-1,7.348270714E-2,-7.868595123E-1,8.054115013E-1
2.381634999E0,-1.918317676E-1,-1.770961285E-2,-4.857177734E-1,5.225273322E-1
2.386610989E0,-1.955687404E-1,-5.565677583E-2,-1.110610962E-1,2.316881007E-1
2.391586978E0,-1.843619347E-1,-5.085718632E-2,2.034597397E-1,2.792340273E-1
2.396562968E0,-1.863121390E-1,-1.817436516E-2,3.206148148E-1,3.712632222E-1
2.401538957E0,-2.060580850E-1,-2.431944013E-2,3.132753372E-1,3.757563126E-1
2.406514947E0,-2.250757515E-1,-2.116945386E-2,2.442378998E-1,3.328053356E-1
2.411490937E0,-2.154986560E-1,-6.097803265E-2,1.900291443E-1,2.937159630E-1
2.416466926E0,-1.826725006E-1,-8.661422879E-2,1.837902069E-1,2.732217181E-1
2.421442916E0,-1.361336410E-1,-1.077961773E-1,1.823759079E-1,2.518200862E-1
2.426418905E0,-7.073283195E-2,-1.197642982E-1,2.142066956E-1,2.554038548E-1
2.431394895E0,8.881807327E-3,-1.178984195E-1,2.172584534E-1,2.473462338E-1
2.436370885E0,6.950855255E-2,-9.282319248E-2,2.060079575E-1,2.364040238E-1
2.441346874E0,1.300930977E-1,-6.372313946E-2,1.900825500E-1,2.389900174E-1
2.446322864E0,1.810892224E-1,-3.528372198E-2,1.362838745E-1,2.293720601E-1
2.451298853E0,1.986276507E-1,2.000570297E-3,8.292770386E-2,2.152532229E-1
2.456274843E0,2.399169207E-1,2.457405627E-2,3.000926971E-2,2.430320335E-1
2.461250832E0,2.097908854E-1,2.326203883E-2,1.076126099E-2,2.113507578E-1
2.466226822E0,1.655683517E-1,1.251222193E-2,-8.320808411E-3,1.662488215E-1
2.471202812E0,1.071599126E-1,-2.845108509E-3,-6.521320343E-2,1.254755092E-1
2.476178801E0,7.705986500E-2,8.165687323E-4,-1.500806808E-1,1.687101074E-1
2.481154791E0,5.123686790E-2,-5.094334483E-3,-2.911758423E-1,2.956933209E-1
2.486130780E0,2.057039738E-2,-2.478314936E-2,-3.313646317E-1,3.329262153E-1
2.491106770E0,1.849663258E-2,-2.934187651E-2,-2.145214081E-1,2.173073990E-1
2.496082760E0,1.158827543E-2,-2.854511142E-2,-9.390640259E-2,9.883078448E-2
2.501058749E0,-4.760205746E-3,-3.957927227E-3,1.961708069E-3,6.494077704E-3
2.506034739E0,1.252245903E-2,4.376178980E-2,9.702205658E-2,1.071689586E-1
2.511010728E0,1.592814922E-2,8.577595651E-2,1.200399399E-1,1.483940963E-1
2.515986718E0,2.936655283E-2,1.127379686E-1,9.535408020E-2,1.505478150E-1
2.520962707E0,1.440674067E-2,1.155816317E-1,4.712104797E-2,1.256465714E-1
2.525938697E0,1.381438971E-2,9.466882050E-2,1.828384399E-2,9.740288440E-2
2.530914687E0,-5.819499493E-3,7.852771878E-2,1.343631744E-2,7.988118563E-2
2.535890676E0,-1.109755039E-2,5.783060193E-2,3.882408142E-3,5.901361908E-2
2.540866666E0,-2.034783363E-3,3.730599582E-2,1.339912415E-2,3.969148770E-2
2.545842655E0,-1.209205389E-2,3.114323318E-2,8.595466614E-3,3.449638802E-2
2.550818645E0,-1.246482134E-2,2.508001029E-2,-5.672454834E-3,2.857543405E-2
2.555794635E0,-8.085012436E-3,3.816097975E-2,-5.578041077E-3,3.940485178E-2
2.560770624E0,-2.278536558E-2,2.263541520E-2,-1.022911072E-2,3.370711515E-2
2.565746614E0,-2.791666985E-2,2.638433874E-2,-5.960464478E-4,3.841652063E-2
2.570722603E0,-1.881116629E-2,1.595942676E-2,2.320480347E-2,3.386777500E-2
2.575698593E0,-9.832084179E-3,2.946351469E-2,3.731155396E-2,4.854812700E-2
2.580674582E0,-1.517236233E-2,2.870918810E-2,5.129909515E-2,6.071256232E-2
2.585650572E0,-3.461170197E-2,2.796442807E-2,5.091762543E-2,6.762088235E-2
2.590626562E0,-4.444253445E-2,4.151950777E-2,3.629589081E-2,7.082654928E-2
2.595602551E0,-4.004895687E-2,4.546463490E-2,2.808570862E-3,6.065344214E-2
2.600578541E0,-4.049289227E-2,5.412869155E-2,-2.089881897E-2,7.075556662E-2
2.605554530E0,-4.573309422E-2,5.327500403E-2,-2.066421509E-2,7.318983362E-2
2.610530520E0,-2.718710899E-2,5.253134668E-2,1.755428314E-2,6.169954729E-2
2.615506510E0,-3.243631124E-2,4.704870284E-2,7.963180542E-3,5.769841393E-2
2.620482499E0,-1.854586601E-2,3.696945310E-2,3.191947937E-3,4.148346827E-2
2.625458489E0,-1.416325569E-2,3.661897779E-2,-2.529144287E-2,4.670336635E-2
2.630434478E0,-1.456665993E-2,3.642909229E-2,-1.555252075E-2,4.220364022E-2
2.635410468E0,-1.021820307E-2,2.204675972E-2,-2.014160156E-2,3.156192963E-2
2.640386457E0,8.341550827E-3,1.262909174E-2,1.804256439E-2,2.355014986E-2
2.645362447E0,-1.129287481E-2,1.283834875E-2,3.216838837E-2,3.643017198E-2
2.650338437E0,-2.121520042E-2,3.600329161E-3,3.192710876E-2,3.850178403E-2
2.655314426E0,-3.105485439E-2,-1.036065817E-2,3.643703461E-2,4.898371883E-2
2.660290416E0,-7.675945759E-3,-1.001125574E-2,7.677078247E-3,1.476763066E-2
2.665266405E0,1.159727573E-3,-1.926468313E-2,-1.133728027E-2,2.238318360E-2
2.670242395E0,-4.376173019E-3,-2.859202027E-2,-1.119232178E-2,3.101487676E-2
2.675218385E0,1.387661695E-2,-3.794457018E-2,-2.054405212E-2,4.532558860E-2
2.680194374E0,1.788616180E-2,-4.727061093E-2,-6.083488464E-3,5.090613198E-2
2.685170364E0,1.251971722E-2,-6.121593714E-2,-6.000518799E-3,6.277053851E-2
2.690146353E0,1.210081577E-2,-5.610254407E-2,-2.017211914E-2,6.083452625E-2
2.695122343E0,-7.310628891E-3,-6.516762823E-2,-2.947998047E-2,7.189808281E-2
2.700098332E0,-2.817749977E-3,-5.991166830E-2,-2.921390533E-2,6.671431614E-2
2.705074322E0,-1.745921373E-2,-4.045401514E-2,-3.843879700E-2,5.847129723E-2
2.710050312E0,-8.441925049E-3,-1.641000807E-2,-5.707073212E-2,5.998018779E-2
2.715026301E0,3.974437714E-4,-2.063319087E-3,-7.079219818E-2,7.082337588E-2
2.720002291E0,1.881444454E-2,2.769708633E-3,-8.441162109E-2,8.652731583E-2
2.724978280E0,4.223704338E-2,1.726858318E-2,-3.146934509E-2,5.543005935E-2
2.729954270E0,3.748887777E-2,8.003637195E-3,1.112174988E-1,1.176384554E-1
2.734930260E0,3.794127703E-2,-1.083876193E-2,3.334159851E-1,3.357428158E-1
2.739906249E0,1.454573870E-2,-1.125384867E-2,4.588127136E-1,4.591811558E-1
2.744882239E0,-5.716913939E-2,-3.138035536E-2,7.040882111E-2,9.597103360E-2
2.749858228E0,-1.389190257E-1,-6.975685060E-2,-6.518392563E-1,6.701185939E-1
2.754834218E0,-1.012277007E-1,-1.098693907E-1,-1.406110764E0,1.414024685E0
2.759810207E0,-6.969332695E-3,-7.575033605E-2,-8.625478745E-1,8.658957909E-1
2.764786197E0,1.982247829E-2,-1.384554803E-2,-2.712574005E-1,2.723328977E-1
2.769762187E0,1.329436302E-1,2.669687569E-2,4.765186310E-1,4.954359067E-1
2.774738176E0,1.309065223E-1,2.275526524E-3,1.327346802E0,1.333788299E0
2.779714166E0,-1.675474644E-2,-2.483239770E-2,9.604816437E-1,9.609486757E-1
2.784690155E0,5.204826593E-2,-4.426458478E-2,4.734659195E-1,4.783705179E-1
2.789666145E0,2.107483149E-1,1.676395535E-3,3.086748123E-1,3.737616918E-1
2.794642135E0,2.769599557E-1,-4.986032844E-3,-1.351547241E-1,3.082182296E-1
2.799618124E0,3.194313049E-1,-3.363557160E-2,-4.807090759E-1,5.781426519E-1
2.804594114E0,3.043508530E-1,-3.146129847E-2,-2.966499329E-1,4.261694941E-1
2.809570103E0,2.067576647E-1,5.354329944E-3,1.325778961E-1,2.456711202E-1
2.814546093E0,9.656381607E-2,9.220138192E-3,2.637624741E-1,2.810342048E-1
2.819522082E0,-5.187630653E-2,2.315479517E-2,1.879596710E-2,5.983798207E-2
2.824498072E0,-1.590179503E-1,4.274834692E-2,-4.044113159E-1,4.366493354E-1
2.829474062E0,-2.261859775E-1,4.441972077E-2,-7.194089890E-1,7.554353059E-1
2.834450051E0,-2.444208264E-1,2.367402613E-2,-7.751407623E-1,8.131083577E-1
2.839426041E0,-2.419481874E-1,4.027307034E-3,-5.690536499E-1,6.183665588E-1
2.844402030E0,-2.221941650E-1,-1.494769752E-2,-2.553644180E-1,3.388283734E-1
2.849378020E0,-1.884092987E-1,-2.406358719E-2,7.470989227E-2,2.041046008E-1
2.854354010E0,-1.680715978E-1,-4.721999168E-3,3.164949417E-1,3.583844408E-1
2.859329999E0,-1.654586494E-1,4.442006350E-3,4.184789658E-1,4.500232670E-1
2.864305989E0,-1.852754653E-1,3.366068006E-3,4.530591965E-1,4.894905147E-1
2.869281978E0,-2.042094171E-1,-3.010079265E-3,4.160881042E-1,4.635082061E-1
2.874257968E0,-1.942921579E-1,-3.837840259E-2,3.414335251E-1,3.947140692E-1
2.879233957E0,-1.466253102E-1,-6.456813216E-2,2.436809540E-1,2.916306442E-1
2.884209947E0,-1.092663407E-1,-8.634988964E-2,1.990118027E-1,2.429014909E-1
2.889185937E0,-2.463197708E-2,-9.901554883E-2,2.022027969E-1,2.264879341E-1
2.894161926E0,5.970680714E-2,-9.319232404E-2,1.911048889E-1,2.208410982E-1
2.899137916E0,1.203207374E-1,-6.424137205E-2,1.658163071E-1,2.147069664E-1
2.904113905E0,1.716548800E-1,-5.019593984E-2,1.074571609E-1,2.086434079E-1
2.909089895E0,2.182777524E-1,-3.648046404E-2,4.955673218E-2,2.267859589E-1
2.914065885E0,2.077885270E-1,-2.293430269E-2,1.111698151E-2,2.093457463E-1
2.919041874E0,2.070896626E-1,-5.556643009E-5,2.521800995E-2,2.086194609E-1
2.924017864E0,1.826542616E-1,3.689959645E-3,2.970314026E-2,1.850904417E-1
2.928993853E0,1.202294230E-1,3.104028106E-2,9.279251099E-4,1.241751757E-1
2.933969843E0,8.630001545E-2,2.002362907E-2,-1.082954407E-1,1.399161923E-1
2.938945832E0,3.773772717E-2,1.865081489E-2,-2.877912521E-1,2.908535607E-1
2.943921822E0,1.291006804E-2,-1.134589314E-3,-3.708038330E-1,3.710302410E-1
2.948897812E0,3.087079525E-2,-1.027676463E-2,-2.869329453E-1,2.887717662E-1
2.953873801E0,1.064348221E-2,-2.337463200E-2,-1.467885971E-1,1.490186209E-1
2.958849791E0,4.726588726E-3,-1.716026664E-2,-1.730537415E-2,2.482521634E-2
2.963825780E0,1.336163282E-2,3.132724762E-2,1.110897064E-1,1.161931691E-1
2.968801770E0,2.723729610E-2,6.925198436E-2,1.624116898E-1,1.786484386E-1
2.973777760E0,3.216832876E-2,9.674978256E-2,1.372947693E-1,1.710122086E-1
2.978753749E0,4.126667976E-3,9.037071466E-2,9.337902069E-2,1.300136030E-1
2.983729739E0,-4.585206509E-3,6.484837830E-2,4.982662201E-2,8.190865979E-2
2.988705728E0,-1.807755232E-2,6.803664565E-2,6.643295288E-3,7.071008713E-2
2.993681718E0,-1.747030020E-2,4.260787368E-2,-2.920150757E-3,4.614292545E-2
2.998657707E0,-2.880871296E-3,3.638847172E-2,-1.238632202E-2,3.854661161E-2
3.003633697E0,-2.160102129E-2,4.441496730E-2,-1.702785492E-2,5.224214088E-2
3.008609687E0,-4.486232996E-2,4.767751694E-2,-2.638339996E-2,7.058227868E-2
3.013585676E0,-3.469026089E-2,4.621586204E-2,-2.616405487E-2,6.343404347E-2
3.018561666E0,-5.789303780E-2,4.961434007E-2,-3.069400787E-2,8.219068490E-2
3.023537655E0,-5.251437426E-2,5.303597450E-2,-1.143741608E-2,7.550753990E-2
3.028513645E0,-4.728257656E-2,5.183152854E-2,1.716041565E-2,7.222623666E-2
3.033489635E0,-7.538437843E-2,5.063365400E-2,5.027103424E-2,1.037966681E-1
3.038465624E0,-5.587089062E-2,4.955209792E-2,6.411743164E-2,9.842769868E-2
3.043441614E0,-6.026154757E-2,4.847605526E-2,7.310009003E-2,1.064190078E-1
3.048417603E0,-5.997109413E-2,5.216088891E-2,3.927803040E-2,8.865694634E-2
3.053393593E0,-4.548901320E-2,5.111797154E-2,9.918212891E-4,6.843450186E-2
3.058369582E0,-4.082947969E-2,4.063475132E-2,-3.221416473E-2,6.599986240E-2
3.063345572E0,-2.211964130E-2,3.034874797E-2,-4.614067078E-2,5.949190310E-2
3.068321562E0,-2.255970240E-2,2.030287683E-2,-4.570865631E-2,5.486736955E-2
3.073297551E0,-1.339507103E-2,5.743175745E-3,-3.579330444E-2,3.864676750E-2
3.078273541E0,-1.829510927E-2,5.704700947E-3,-1.648426056E-2,2.527816216E-2
3.083249530E0,1.503854990E-2,-3.724098206E-3,2.649307251E-3,1.571768811E-2
3.088225520E0,5.410373211E-3,-3.529310226E-3,7.372856140E-3,9.802406675E-3
3.093201510E0,-4.136621952E-3,-8.088082075E-3,7.308959961E-3,1.165974307E-2
3.098177499E0,-1.830202341E-2,-3.159895539E-3,2.148818970E-2,2.840231148E-2
3.103153489E0,-3.806889057E-3,-3.072723746E-3,3.554725647E-2,3.588232821E-2
3.108129478E0,-1.312464476E-2,-3.034278750E-3,4.948616028E-2,5.128687168E-2
3.113105468E0,6.280720234E-3,-3.047630191E-3,6.329917908E-2,6.368297707E-2
3.118081457E0,-1.246464252E-2,-3.108918667E-3,3.901004791E-2,4.107087200E-2
3.123057447E0,2.081751823E-3,-1.271471381E-2,1.968097687E-2,2.352314793E-2
3.128033437E0,1.640498638E-2,-1.284983754E-2,1.476669312E-2,2.554010823E-2
3.133009426E0,1.146048307E-2,-1.313826442E-2,9.906768799E-3,2.005244953E-2
3.137985416E0,1.115125418E-2,-2.307571471E-2,9.848594666E-3,2.745603569E-2
3.142961405E0,6.095111370E-3,-3.308129311E-2,-1.394748688E-2,3.641503435E-2
3.147937395E0,1.133561134E-3,-4.780691862E-2,-5.654239655E-2,7.405288000E-2
3.152913385E0,1.536172628E-2,-5.760981143E-2,-7.030296326E-2,9.218123263E-2
3.157889374E0,5.831837654E-3,-7.192507386E-2,-6.496429443E-2,9.709575754E-2
3.162865364E0,1.078218222E-2,-5.747905374E-2,-7.867813110E-2,9.803236907E-2
3.167841353E0,1.496255398E-3,-6.684099883E-2,-6.853866577E-2,9.574709714E-2
3.172817343E0,6.432235241E-3,-6.178338826E-2,-5.373096466E-2,8.213146339E-2
3.177793332E0,2.061825991E-2,-3.302542865E-2,-5.327796936E-2,6.598737454E-2
3.182769322E0,1.073783636E-2,-2.344965935E-2,-6.231307983E-2,6.743965874E-2
3.187745312E0,1.033478975E-2,-4.357218742E-3,-8.551311493E-2,8.624549878E-2
3.192721301E0,2.433490753E-2,4.849880934E-4,-6.579685211E-2,7.015446305E-2
3.197697291E0,1.968646049E-2,-8.800908923E-3,2.969646454E-2,3.670003720E-2
3.202673280E0,4.392987490E-2,-3.822267056E-3,2.478322983E-1,2.517246347E-1
3.207649270E0,3.003573418E-2,5.191087723E-3,4.973993301E-1,4.983324055E-1
3.212625260E0,-1.780533791E-2,1.774512231E-2,2.606172562E-1,2.618268008E-1
3.217601249E0,-1.043201089E-1,-1.242899895E-2,-5.059537888E-1,5.167459739E-1
3.222577239E0,-1.094453931E-1,-6.845732778E-2,-1.294669151E0,1.301089125E0
3.227553228E0,-3.911793232E-2,-4.035803676E-2,-1.084395409E0,1.085850996E0
3.232529218E0,-7.873296738E-3,2.457782626E-3,-5.956897736E-1,5.957468723E-1
3.237505207E0,1.191108227E-1,5.833178759E-2,2.355337143E-1,2.703074473E-1
3.242481197E0,1.595682502E-1,2.067816257E-2,1.553725243E0,1.562034488E0
3.247457187E0,3.608149290E-2,-2.548101544E-2,1.460348129E0,1.461016021E0
3.252433176E0,4.895746708E-2,-3.625346720E-2,7.126789093E-1,7.152778308E-1
3.257409166E0,1.904919147E-1,-1.996876299E-2,2.324056625E-1,3.011616062E-1
3.262385155E0,2.292582989E-1,5.848631263E-3,-3.627710342E-1,4.291810776E-1
3.267361145E0,2.051342726E-1,-2.346159518E-2,-7.966012955E-1,8.229241400E-1
3.272337135E0,2.083486915E-1,-4.499670863E-2,-6.098060608E-1,6.459855361E-1
3.277313124E0,1.712716818E-1,-3.592368960E-2,-8.288574219E-2,1.936350865E-1
3.282289114E0,9.285503626E-2,-2.592262626E-2,2.686052322E-1,2.853818689E-1
3.287265103E0,-1.891142130E-2,3.434717655E-3,1.898508072E-1,1.908212989E-1
3.292241093E0,-1.272583008E-1,3.811267018E-2,-1.967582703E-1,2.374048602E-1
3.297217082E0,-2.001611888E-1,6.403020024E-2,-5.561923981E-1,5.945707290E-1
3.302193072E0,-2.526225448E-1,9.550428391E-2,-6.797142029E-1,7.314031829E-1
3.307169062E0,-2.507485151E-1,7.515195012E-2,-5.313491821E-1,5.923297956E-1
3.312145051E0,-2.314338982E-1,4.592883587E-2,-2.986478806E-1,3.806069676E-1
3.317121041E0,-1.647925675E-1,1.229837537E-2,-2.514743805E-2,1.671533248E-1
3.322097030E0,-1.451111436E-1,-2.219438553E-3,2.032718658E-1,2.497631305E-1
3.327073020E0,-1.433019042E-1,-1.703727245E-2,3.917236328E-1,4.174603082E-1
3.332049010E0,-1.782118976E-1,-4.189893603E-2,4.835615158E-1,5.170558392E-1
3.337024999E0,-1.929657161E-1,-4.352556169E-2,4.606246948E-1,5.013036521E-1
3.342000989E0,-2.025947273E-1,-6.478937715E-2,3.856410980E-1,4.404104261E-1
3.346976978E0,-1.363243461E-1,-6.759430468E-2,2.590732574E-1,3.004534408E-1
3.351952968E0,-6.611722708E-2,-9.457400441E-2,1.620769501E-1,1.989589600E-1
3.356928957E0,-1.554185152E-2,-9.794293344E-2,1.038866043E-1,1.436203116E-1
3.361904947E0,6.351441145E-2,-9.204410017E-2,9.364318848E-2,1.458603565E-1
3.366880937E0,1.329817176E-1,-8.175830543E-2,1.166906357E-1,1.948980815E-1
3.371856926E0,1.691468954E-1,-5.773172528E-2,1.110267639E-1,2.104057191E-1
3.376832916E0,1.864300370E-1,-2.952449024E-2,7.214736938E-2,2.020720098E-1
3.381808905E0,1.799811721E-1,-1.135827601E-2,3.358650208E-2,1.834401424E-1
3.386784895E0,1.736890078E-1,1.615338027E-2,8.869171143E-5,1.744385593E-1
3.391760885E0,1.438595057E-1,5.712330341E-3,-2.364826202E-2,1.459021192E-1
3.396736874E0,1.191806197E-1,2.875575423E-2,5.032539368E-3,1.227038710E-1
3.401712864E0,7.081061602E-2,2.311614156E-2,-2.349662781E-2,7.810627926E-2
3.406688853E0,4.142498970E-2,1.257273555E-2,-1.419763565E-1,1.484297452E-1
3.411664843E0,1.192140579E-2,-7.214426994E-3,-2.926855087E-1,2.930170215E-1
3.416640832E0,6.147205830E-3,-4.045732319E-2,-2.996759415E-1,3.024570268E-1
3.421616822E0,1.451164484E-2,-3.940850496E-2,-1.973962784E-1,2.018140451E-1
3.426592812E0,1.795697212E-2,-4.271295667E-2,-3.898620605E-2,6.055389151E-2
3.431568801E0,3.112691641E-2,-8.306831121E-3,1.275882721E-1,1.315927640E-1
3.436544791E0,3.520250320E-2,3.464835882E-2,2.025270462E-1,2.084632568E-1
3.441520780E0,5.395078659E-2,6.228728592E-2,1.343669891E-1,1.576225908E-1
3.446496770E0,2.546846867E-2,7.984238863E-2,5.250549316E-2,9.889528164E-2
3.451472760E0,4.001146555E-2,7.820568979E-2,-2.867507935E-2,9.240837335E-2
3.456448749E0,1.634055376E-2,7.669289410E-2,-3.794670105E-2,8.711352262E-2
3.461424739E0,-7.287561893E-3,7.049567997E-2,-2.813720703E-2,7.625255322E-2
3.466400728E0,-2.137792110E-2,5.960895121E-2,-8.901596069E-3,6.394904994E-2
3.471376718E0,-3.086060286E-2,4.876516759E-2,-4.051208496E-3,5.785179919E-2
3.476352707E0,-2.121794224E-2,5.695065856E-2,5.503654480E-3,6.102351019E-2
3.481328697E0,-3.539806604E-2,4.602247477E-2,-4.014015198E-3,5.819968712E-2
3.486304687E0,-3.996217251E-2,5.897563696E-2,-1.345252991E-2,7.249876928E-2
3.491280676E0,-3.978925943E-2,4.817393422E-2,-2.281093597E-2,6.651505021E-2
3.496256666E0,-3.492081165E-2,6.130765378E-2,5.898475647E-3,7.080171971E-2
3.501232655E0,-4.438883066E-2,5.538567901E-2,2.962303162E-2,7.691206491E-2
3.506208645E0,-3.953152895E-2,4.971517622E-2,2.940368652E-2,6.999226607E-2
3.511184635E0,-5.845618248E-2,5.368812382E-2,3.393268585E-2,8.631898446E-2
3.516160624E0,-4.878360033E-2,4.823385179E-2,2.418041229E-2,7.273951099E-2
3.521136614E0,-3.919166327E-2,3.817941248E-2,5.010604858E-3,5.494324497E-2
3.526112603E0,-4.877650738E-2,3.780865669E-2,-2.824020386E-2,6.786863272E-2
3.531088593E0,-2.994585037E-2,4.219315946E-2,-3.746032715E-2,6.387716939E-2
3.536064582E0,-3.047186136E-2,3.714700043E-2,-2.284908295E-2,5.320258046E-2
3.541040572E0,-2.619451284E-2,2.259813249E-2,-1.310920715E-2,3.699566741E-2
3.546016562E0,-2.190130949E-2,3.473445773E-3,-1.295280457E-2,2.568087477E-2
3.550992551E0,-1.754105091E-2,-1.544043422E-2,-3.309249878E-3,2.360183490E-2
3.555968541E0,-1.301229000E-2,-1.514758170E-2,-3.258705139E-3,2.023334084E-2
3.560944530E0,-1.786398888E-2,-5.257293582E-3,2.052021027E-2,2.770993078E-2
3.565920520E0,-8.429825306E-3,-9.694918990E-3,3.460407257E-2,3.691199327E-2
3.570896510E0,-1.806825399E-2,-1.409554482E-2,3.432559967E-2,4.127218166E-2
3.575872499E0,-1.802647114E-2,-1.371100545E-2,3.404235840E-2,4.088798720E-2
3.580848489E0,-3.223043680E-2,-2.752371132E-2,4.800605774E-2,6.403856120E-2
3.585824478E0,-2.247071266E-2,-2.697579563E-2,6.659412384E-2,7.528216128E-2
3.590800468E0,6.151318550E-3,-1.704201102E-2,7.078742981E-2,7.306934432E-2
3.595776457E0,1.548826694E-2,-2.153570950E-2,6.070613861E-2,6.624883744E-2
3.600752447E0,5.600094795E-3,-1.190452278E-2,4.597473145E-2,4.782002359E-2
3.605728437E0,9.833991528E-3,-2.630190551E-2,3.138351440E-2,4.211202440E-2
3.610704426E0,2.337419987E-2,-3.118154407E-2,7.431030273E-3,3.967193114E-2
3.615680416E0,4.629951715E-2,-2.657867968E-2,2.641487122E-2,5.956355365E-2
3.620656405E0,3.584480286E-2,-2.691334486E-2,-2.243995667E-3,4.487999042E-2
3.625632395E0,3.523153067E-2,-4.159364104E-2,-4.967498779E-2,7.374887213E-2
3.630608385E0,1.567983627E-2,-4.649649560E-2,-9.671783447E-2,1.084533120E-1
3.635584374E0,2.018892765E-2,-4.640781879E-2,-1.433839798E-1,1.520534252E-1
3.640560364E0,1.056933403E-2,-3.651414812E-2,-1.326961517E-1,1.380335558E-1
3.645536353E0,2.007532120E-2,-4.543974996E-2,-9.836292267E-2,1.101955260E-1
3.650512343E0,1.515370607E-2,-3.994259238E-2,-5.006504059E-2,6.581454082E-2
3.655488332E0,1.006740332E-2,-2.514858544E-2,-2.114582062E-2,3.436494855E-2
3.660464322E0,2.386415005E-2,-5.938783288E-3,7.547378540E-3,2.572410790E-2
3.665440312E0,2.324706316E-2,8.164122701E-3,7.518768311E-3,2.576064289E-2
3.670416301E0,3.223586082E-2,3.048941493E-3,-2.575492859E-2,4.137345905E-2
3.675392291E0,4.145735502E-2,-6.716966629E-3,-3.028392792E-2,5.177785450E-2
3.680368280E0,4.626494646E-2,-6.698757410E-3,6.965827942E-2,8.389037200E-2
3.685344270E0,8.478641510E-2,-1.153208315E-2,2.874450684E-1,2.999106408E-1
3.690320260E0,5.191600323E-2,-2.704471350E-3,4.701776505E-1,4.730429246E-1
3.695296249E0,-5.040228367E-3,-4.374161363E-3,1.671037674E-1,1.672369764E-1
3.700272239E0,-1.050829291E-1,-4.365414381E-2,-5.750026703E-1,5.861537146E-1
3.705248228E0,-1.241876483E-1,-8.038263768E-2,-1.196958542E0,1.206065376E0
3.710224218E0,-5.404132605E-2,-5.291679502E-2,-9.067277908E-1,9.098768811E-1
3.715200207E0,-1.322269440E-2,-1.083157957E-2,-6.568956375E-1,6.571179813E-1
3.720176197E0,1.330083609E-1,3.513236344E-2,3.647785187E-1,3.898575056E-1
3.725152187E0,1.500200629E-1,2.099612355E-2,1.620147705E0,1.627214013E0
3.730128176E0,4.127234221E-2,1.224428415E-2,1.374261856E0,1.374935990E0
3.735104166E0,5.513554811E-2,-9.116023779E-3,7.507390976E-1,7.528161948E-1
3.740080155E0,1.646169424E-1,1.581466198E-2,8.928298950E-3,1.656156870E-1
3.745056145E0,1.712350845E-1,1.300072670E-2,-8.313655853E-1,8.489164915E-1
3.750032135E0,1.475399137E-1,-1.997207105E-2,-1.156848907E0,1.166390288E0
3.755008124E0,1.884971261E-1,-5.423058569E-2,-6.963882446E-1,7.234837318E-1
3.759984114E0,1.885368228E-1,-2.453528345E-2,2.208709717E-3,1.901394017E-1
3.764960103E0,1.422778964E-1,-3.828912973E-3,3.862314224E-1,4.116216370E-1
3.769936093E0,1.496976614E-2,3.593389690E-2,2.542676926E-1,2.572302438E-1
3.774912082E0,-1.567331553E-1,7.571095228E-2,-2.277908325E-1,2.866811707E-1
3.779888072E0,-2.597865164E-1,1.016745716E-1,-5.631036758E-1,6.284206413E-1
3.784864062E0,-2.803644240E-1,9.975901246E-2,-5.962057114E-1,6.663462471E-1
3.789840051E0,-2.507449090E-1,8.892898262E-2,-3.772106171E-1,4.615942190E-1
3.794816041E0,-2.075334191E-1,5.464296043E-2,-1.030282974E-1,2.380563027E-1
3.799792030E0,-1.496617198E-1,6.484061480E-3,1.165819168E-1,1.898210124E-1
3.804768020E0,-1.623681188E-1,-2.249607444E-2,2.820529938E-1,3.262259503E-1
3.809744010E0,-1.646474600E-1,-4.706546664E-2,3.606243134E-1,3.992165322E-1
3.814719999E0,-1.853895783E-1,-4.835440218E-2,3.767881393E-1,4.227017222E-1
3.819695989E0,-2.106075883E-1,-6.458898634E-2,3.358421326E-1,4.016431643E-1
3.824671978E0,-2.025862336E-1,-6.704370677E-2,2.715215683E-1,3.453404157E-1
3.829647968E0,-1.759514809E-1,-7.461831719E-2,1.555347443E-1,2.464099705E-1
3.834623957E0,-1.310104132E-1,-6.818118691E-2,6.429767609E-2,1.610794641E-1
3.839599947E0,-5.336064100E-2,-6.674417853E-2,1.182651520E-2,8.626708433E-2
3.844575937E0,2.859544754E-2,-5.597255379E-2,2.517700195E-3,6.290441330E-2
3.849551926E0,1.103819609E-1,-5.498947948E-2,4.073715210E-2,1.298750773E-1
3.854527916E0,1.588137150E-1,-2.588737011E-2,7.860279083E-2,1.790819665E-1
3.859503905E0,2.024556994E-1,-2.109056711E-2,6.864738464E-2,2.148152361E-1
3.864479895E0,1.937583089E-1,2.399146557E-3,7.775306702E-2,2.087907507E-1
3.869455885E0,1.946311593E-1,-1.245324314E-2,7.728958130E-2,2.097857260E-1
3.874431874E0,1.859508157E-1,-1.769700646E-2,8.158397675E-2,2.038304078E-1
3.879407864E0,1.629961729E-1,-3.245374560E-2,8.585262299E-2,1.870606074E-1
3.884383853E0,1.117417216E-1,-4.724203050E-2,9.365081787E-3,1.216787843E-1
3.889359843E0,8.920234442E-2,-6.197085977E-2,-1.187009811E-1,1.608955209E-1
3.894335832E0,5.714857578E-2,-8.111992478E-2,-2.409372330E-1,2.605708198E-1
3.899311822E0,3.000813723E-2,-1.138409823E-1,-2.434425354E-1,2.704154685E-1
3.904287812E0,4.603832960E-2,-1.171900779E-1,-1.319885254E-1,1.824116580E-1
3.909263801E0,7.659339905E-2,-1.202628911E-1,-1.675033569E-2,1.435628277E-1
3.914239791E0,9.331631660E-2,-9.502489865E-2,8.797931671E-2,1.596183776E-1
3.919215780E0,9.663134813E-2,-5.141863972E-2,1.110410690E-1,1.559218168E-1
3.924191770E0,9.588885307E-2,-2.287973464E-2,6.737995148E-2,1.194077563E-1
3.929167760E0,6.722605228E-2,5.271255970E-3,9.795188904E-3,6.814010545E-2
3.934143749E0,4.860758781E-2,1.419369876E-2,-4.598617554E-3,5.084590407E-2
3.939119739E0,2.059423923E-2,4.204411805E-2,-9.370803833E-3,4.774560206E-2
3.944095728E0,6.853461266E-3,4.127843678E-2,1.440238953E-2,4.425277504E-2
3.949071718E0,-4.047489166E-2,4.996475577E-2,4.776000977E-3,6.447870858E-2
3.954047707E0,-2.124065161E-2,5.373989046E-2,9.501457214E-3,5.856123971E-2
3.959023697E0,-3.556126356E-2,5.263639987E-2,4.705429077E-3,6.369721438E-2
3.963999687E0,-2.596849203E-2,3.724521399E-2,2.368831635E-2,5.121235080E-2
3.968975676E0,-3.049558401E-2,4.567337036E-2,7.098770142E-2,8.975127384E-2
3.973951666E0,-1.573300362E-2,3.493031859E-2,1.036291122E-1,1.104836977E-1
3.978927655E0,-1.988172531E-2,4.311652482E-2,1.264877319E-1,1.351053813E-1
3.983903645E0,-1.919674873E-2,3.214175999E-2,1.206636429E-1,1.263381281E-1
3.988879635E0,-3.286659718E-2,4.965066910E-2,8.165740967E-2,1.010610445E-1
3.993855624E0,-3.702825308E-2,6.231653690E-2,5.722999573E-2,9.235645461E-2
3.998831614E0,-6.959652901E-2,7.013659179E-2,6.624126434E-2,1.189568134E-1
4.003807603E0,-6.860429049E-2,7.320261002E-2,7.517337799E-2,1.253642993E-1
4.008783593E0,-8.176290989E-2,6.664319336E-2,6.977939606E-2,1.264739213E-1
4.013759582E0,-1.090601683E-1,8.389319479E-2,3.593921661E-2,1.422104628E-1
4.018735572E0,-1.028913856E-1,7.256397605E-2,-2.367973328E-3,1.259276584E-1
4.023711562E0,-9.202653170E-2,7.568164170E-2,-1.661491394E-2,1.203023225E-1
4.028687551E0,-1.000927687E-1,6.953760982E-2,-4.975414276E-2,1.316416205E-1
4.033663541E0,-7.469904423E-2,8.280289173E-2,-6.838989258E-2,1.308183607E-1
4.038639530E0,-8.275753260E-2,8.187051117E-2,-6.787967682E-2,1.347562256E-1
4.043615520E0,-6.705880165E-2,9.065268934E-2,-5.312824249E-2,1.246491200E-1
4.048591510E0,-6.093657017E-2,8.057330549E-2,-1.476573944E-2,1.020948099E-1
4.053567499E0,-5.956244469E-2,8.012634516E-2,4.278182983E-3,9.993107052E-2
4.058543489E0,-2.965736389E-2,5.599202216E-2,1.841068268E-2,6.598195977E-2
4.063519478E0,-5.213201046E-2,4.160718620E-2,3.716468811E-2,7.635521266E-2
4.068495468E0,-2.203160524E-2,2.259372175E-2,6.049919128E-2,6.823503527E-2
4.073471457E0,-1.587402821E-2,2.258241177E-2,7.414150238E-2,7.911328882E-2
4.078447447E0,-3.361302614E-2,-6.022706628E-3,7.343482971E-2,8.098631203E-2
4.083423437E0,-3.706049919E-2,-1.075384021E-2,6.324768066E-2,7.409045005E-2
4.088399426E0,-1.229786873E-2,-6.047487259E-3,2.468013763E-2,2.822975152E-2
4.093375416E0,-3.063136339E-2,-1.093281806E-2,5.440711975E-3,3.297587422E-2
4.098351405E0,-2.522397041E-2,-1.097750664E-2,-4.130363464E-3,2.781751674E-2
4.103327395E0,-1.021128893E-2,-6.320804358E-3,6.132125854E-4,1.202493322E-2
4.108303385E0,4.726827145E-3,-1.604731381E-2,1.481151581E-2,2.234368313E-2
4.113279374E0,2.914130688E-2,-1.635411382E-2,1.464176178E-2,3.648361267E-2
4.118255364E0,3.920966387E-2,-2.150979638E-2,-4.526138306E-3,4.495058408E-2
4.123231353E0,3.515547514E-2,-2.667793632E-2,-6.153774261E-2,7.572657053E-2
4.128207343E0,3.128933907E-2,-5.549407005E-2,-1.038417816E-1,1.218266398E-1
4.133183332E0,5.135315657E-2,-5.527436733E-2,-1.125717163E-1,1.355167653E-1
4.138159322E0,9.570658207E-3,-4.999935627E-2,-6.900501251E-2,8.575094680E-2
4.143135312E0,1.076984406E-2,-3.996838629E-2,-6.800651550E-3,4.194890112E-2
4.148111301E0,7.108688354E-3,-3.002499044E-2,2.660751343E-3,3.096955115E-2
4.153087291E0,-6.327629089E-3,-1.562169194E-2,2.573013306E-3,1.704982541E-2
4.158063280E0,8.633434772E-3,-1.104117930E-2,-1.648807526E-2,2.164025097E-2
4.163039270E0,3.296673298E-2,-1.620158553E-2,-4.488277435E-2,5.799793350E-2
4.168015260E0,4.305845499E-2,-3.081989288E-2,-4.456520081E-2,6.920948971E-2
4.172991249E0,6.772500277E-2,-6.911816448E-2,4.119205475E-2,1.051702526E-1
4.177967239E0,1.115421653E-1,-9.776247293E-2,2.116832733E-1,2.584743004E-1
4.182943228E0,1.267627478E-1,-1.315418631E-1,3.617515564E-1,4.052607118E-1
4.187919218E0,5.607742071E-2,-1.373803765E-1,1.069889069E-1,1.829335156E-1
4.192895207E0,-1.938372850E-2,-1.477169544E-1,-5.729732513E-1,5.920256534E-1
4.197871197E0,-8.064383268E-2,-1.749900579E-1,-1.233011246E0,1.247975032E0
4.202847187E0,-3.785270452E-2,-1.476403028E-1,-9.378213882E-1,9.501260140E-1
4.207823176E0,4.788577557E-3,-7.221762091E-2,-7.163496017E-1,7.199965744E-1
4.212799166E0,1.911717653E-1,-3.092131019E-2,3.768815994E-1,4.237245701E-1
4.217775155E0,2.726198435E-1,-2.600686252E-2,1.750631332E0,1.771922120E0
4.222751145E0,1.669741869E-1,3.109163046E-2,1.688566208E0,1.697086594E0
4.227727135E0,9.855175018E-2,4.121266305E-2,9.054489136E-1,9.117283949E-1
4.232703124E0,1.166313291E-1,4.527737200E-2,-9.432220459E-2,1.566830738E-1
4.237679114E0,1.415694952E-1,4.148413241E-2,-9.814939499E-1,9.925186290E-1
4.242655103E0,1.594218016E-1,1.270268857E-2,-1.210998535E0,1.221513046E0
4.247631093E0,1.839785576E-1,-2.895742655E-3,-7.882804871E-1,8.094705808E-1
4.252607082E0,1.670837402E-1,-2.091361582E-2,-8.433151245E-2,1.883246122E-1
4.257583072E0,9.840798378E-2,-3.322178125E-2,3.952846527E-1,4.087025504E-1
4.262559062E0,-4.313945770E-3,-7.559940219E-3,3.106918335E-1,3.108137356E-1
4.267535051E0,-1.476068497E-1,2.747389674E-2,-1.860618591E-1,2.390849483E-1
4.272511041E0,-2.417896688E-1,4.857991636E-2,-6.118955612E-1,6.597260265E-1
4.277487030E0,-2.772624791E-1,5.134443939E-2,-6.350469589E-1,6.948347817E-1
4.282463020E0,-2.384668291E-1,5.950742960E-2,-2.969856262E-1,3.854971140E-1
4.287439010E0,-1.902906299E-1,4.881228507E-2,1.427097321E-1,2.428152191E-1
4.292414999E0,-1.408221126E-1,1.885281503E-2,4.741601944E-1,4.949890766E-1
4.297390989E0,-1.136074662E-1,-1.168528199E-2,6.032905579E-1,6.140054555E-1
4.302366978E0,-1.280716062E-1,-2.859954536E-2,5.175848007E-1,5.339609501E-1
4.307342968E0,-1.467005610E-1,-3.649578989E-2,3.043622971E-1,3.398373216E-1
4.312318957E0,-1.937705874E-1,-3.027844429E-2,1.689052582E-1,2.588296949E-1
4.317294947E0,-2.029759884E-1,-3.381162882E-2,9.634876251E-2,2.272125924E-1
4.322270937E0,-1.744276285E-1,-5.175897479E-2,9.565162659E-2,2.055558871E-1
4.327246926E0,-1.415756345E-1,-5.556465685E-2,1.139745712E-1,1.900560293E-1
4.332222916E0,-8.030289412E-2,-5.979409814E-2,1.368875504E-1,1.695938985E-1
4.337198905E0,-9.324431419E-3,-4.545366764E-2,1.595649719E-1,1.661744902E-1
4.342174895E0,5.708593130E-2,-3.169596195E-2,9.178352356E-2,1.126394813E-1
4.347150885E0,1.091585755E-1,-4.160180688E-3,2.928829193E-2,1.130960024E-1
4.352126874E0,1.469121575E-1,1.829464734E-2,-8.968353271E-3,1.483182643E-1
4.357102864E0,1.750600934E-1,2.156832814E-2,-8.933067322E-3,1.766098207E-1
4.362078853E0,1.888824701E-1,3.436318040E-2,1.483154297E-2,1.925549022E-1
4.367054843E0,1.457621455E-1,3.290879726E-2,2.888774872E-2,1.521975494E-1
4.372030832E0,1.173496842E-1,4.096350074E-2,4.831314087E-3,1.243876938E-1
4.377006822E0,7.941871881E-2,3.455497324E-2,-7.598304749E-2,1.152163295E-1
4.381982812E0,5.083554983E-2,3.765311837E-2,-2.035732269E-1,2.131761459E-1
4.386958801E0,7.934093475E-3,2.684801817E-2,-2.968454361E-1,2.981626718E-1
4.391934791E0,3.221690655E-3,2.409845591E-3,-2.421360016E-1,2.421694240E-1
4.396910780E0,1.749002934E-2,-1.160363853E-2,-1.166658401E-1,1.185388705E-1
4.401886770E0,3.302752972E-3,-1.552149653E-3,1.723957062E-2,1.762158168E-2
4.406862760E0,1.808470488E-2,1.770687103E-2,1.452579498E-1,1.474464710E-1
4.411838749E0,1.906281710E-2,5.043745041E-2,2.151985168E-1,2.218506909E-1
4.416814739E0,6.250619888E-3,7.293517888E-2,1.658191681E-1,1.812583986E-1
4.421790728E0,-2.994090319E-2,7.114638388E-2,9.309864044E-2,1.209364398E-1
4.426766718E0,-5.174160004E-2,6.943142414E-2,4.473686218E-2,9.746436616E-2
4.431742707E0,-5.942612886E-2,5.829265714E-2,2.529144287E-2,8.700089511E-2
4.436718697E0,-6.730610132E-2,5.675120652E-2,2.027225494E-2,9.034254278E-2
4.441694687E0,-8.983141184E-2,5.997854471E-2,1.083374023E-3,1.080198226E-1
4.446670676E0,-6.019502878E-2,5.828353763E-2,-2.267074585E-2,8.680077745E-2
4.451646666E0,-5.475413799E-2,7.079668343E-2,1.274108887E-3,8.950871112E-2
4.456622655E0,-3.981256485E-2,7.371598482E-2,-8.224487305E-3,8.418271158E-2
4.461598645E0,-1.549750566E-2,7.660718262E-2,-3.396987915E-3,7.823281050E-2
4.466574635E0,-2.937430143E-2,8.902649581E-2,6.137847900E-3,9.394806926E-2
4.471550624E0,-2.414041758E-2,8.719596267E-2,1.345634460E-3,9.048594586E-2
4.476526614E0,-9.607553482E-3,8.078657091E-2,-2.239322662E-2,8.438146551E-2
4.481502603E0,-2.389281988E-2,6.993940473E-2,-3.642749786E-2,8.239751074E-2
4.486478593E0,9.375631809E-3,6.418476999E-2,-3.610229492E-2,7.423585972E-2
4.491454582E0,1.857519150E-2,5.867649615E-2,-1.678657532E-2,6.379465534E-2
4.496430572E0,1.820230484E-2,5.321040750E-2,1.186466217E-2,5.747557373E-2
4.501406562E0,3.693175316E-2,5.242797732E-2,4.502105713E-2,7.835523456E-2
4.506382551E0,4.636967182E-2,5.629390478E-2,5.413532257E-2,9.082831789E-2
4.511358541E0,2.759927511E-2,5.532388389E-2,3.940677643E-2,7.331675214E-2
4.516334530E0,2.353966236E-2,3.536790609E-2,1.053237915E-2,4.377140044E-2
4.521310520E0,1.966828108E-2,2.037818730E-2,-4.185581207E-2,5.053732089E-2
4.526286510E0,-1.725476980E-2,1.516105235E-2,-7.007980347E-2,7.374797247E-2
4.531262499E0,-3.503054380E-2,1.478736103E-2,-4.582500458E-2,5.954608375E-2
4.536238489E0,-4.331564903E-2,4.868313670E-3,-3.125762939E-2,5.363753653E-2
4.541214478E0,-3.759622574E-2,-9.712889791E-3,-5.002784729E-2,6.332931329E-2
4.546190468E0,-4.157829285E-2,-1.941667497E-2,-5.438518524E-2,7.115834510E-2
4.551166457E0,-7.591962814E-3,-4.322993755E-2,-3.496170044E-2,5.611404368E-2
4.556142447E0,2.156853676E-2,-5.259928107E-2,2.227401733E-2,6.105749745E-2
4.561118437E0,3.654921055E-2,-5.729642510E-2,6.951618195E-2,9.721740931E-2
4.566094426E0,2.786850929E-2,-4.781191051E-2,8.311367035E-2,9.985246515E-2
4.571070416E0,3.355717659E-2,-5.280637741E-2,7.760334015E-2,9.968388033E-2
4.576046405E0,2.970153093E-2,-4.356528819E-2,4.839897156E-2,7.157217142E-2
4.581022395E0,1.622539759E-2,-3.444908559E-2,3.844356537E-2,5.411017227E-2
4.585998385E0,-2.042591572E-3,-2.060525119E-2,2.383232117E-2,3.157100076E-2
4.590974374E0,-1.076418161E-2,-1.642529666E-2,-4.893302917E-3,2.023863606E-2
4.595950364E0,-1.482039690E-2,-7.425114512E-3,-4.286766052E-2,4.596099225E-2
4.600926353E0,-4.649996758E-3,-1.258735359E-2,-5.203437805E-2,5.373676990E-2
4.605902343E0,1.013261080E-2,-8.106648922E-3,-4.213047028E-2,4.408360335E-2
4.610878332E0,2.009367943E-2,9.344369173E-4,-1.331520081E-2,2.412309470E-2
4.615854322E0,3.972357512E-2,-4.338055849E-3,-3.751754761E-3,4.013548072E-2
4.620830312E0,4.989999533E-2,-4.924714565E-3,-1.327419281E-2,5.186970736E-2
4.625806301E0,5.565482378E-2,-5.558013916E-3,-3.224182129E-2,6.455916642E-2
4.630782291E0,4.272657633E-2,-2.512498200E-2,-7.007217407E-2,8.583084891E-2
4.635758280E0,5.385559797E-2,-3.477825224E-2,-6.962013245E-2,9.464098005E-2
4.640734270E0,3.165352345E-2,-4.425188899E-2,-5.967617035E-2,8.075531272E-2
4.645710260E0,1.407611370E-2,-3.465263546E-2,-3.554821014E-2,5.160055586E-2
4.650686249E0,-3.763973713E-3,-2.999208868E-2,-4.008102417E-2,5.020140814E-2
4.655662239E0,-1.221692562E-2,3.021255136E-3,-1.131534576E-2,1.692389742E-2
4.660638228E0,-2.054679394E-2,1.180750132E-2,-2.077579498E-2,3.151541663E-2
4.665614218E0,-5.900859833E-5,4.431442916E-2,-6.433486938E-3,4.477903380E-2
4.670590207E0,-7.821321487E-3,3.386536241E-2,3.010749817E-3,3.488696684E-2
4.675566197E0,1.803177595E-2,3.799891472E-2,1.215648651E-1,1.286354496E-1
4.680542187E0,1.053446531E-2,1.824891567E-2,2.961082458E-1,2.968570214E-1
4.685518176E0,-2.161860466E-3,-6.603494287E-3,3.505334854E-1,3.506023448E-1
4.690494166E0,-7.761520147E-2,-3.176407516E-2,-1.327133179E-2,8.490703279E-2
4.695470155E0,-1.582710147E-1,-5.599054694E-2,-6.161623001E-1,6.386240173E-1
4.700446145E0,-1.339971423E-1,-8.248817921E-2,-1.095357895E0,1.106602210E0
4.705422135E0,-5.289119482E-2,-8.286438882E-2,-7.491273880E-1,7.555500175E-1
4.710398124E0,1.447713375E-2,-2.120454609E-2,-5.910606384E-1,5.916180343E-1
4.715374114E0,1.396037936E-1,2.951098979E-2,2.256631851E-1,2.669906194E-1
4.720350103E0,8.640861511E-2,1.982194185E-2,1.486867905E0,1.489508484E0
4.725326093E0,-4.168295860E-2,4.371982813E-2,1.512841225E0,1.514046718E0
4.730302082E0,4.607379436E-3,4.978643358E-2,1.007019997E0,1.008260478E0
4.735278072E0,1.381854415E-1,7.802137733E-2,3.343620300E-1,3.701087930E-1
4.740254062E0,2.283595204E-1,7.368460298E-2,-5.135107040E-1,5.668074933E-1
4.745230051E0,2.758054733E-1,-3.588944674E-3,-1.008136749E0,1.045189574E0
4.750206041E0,2.835677266E-1,-6.263320148E-2,-7.582006454E-1,8.119124289E-1
4.755182030E0,1.737434268E-1,-7.162195444E-2,-1.543407440E-1,2.431821292E-1
4.760158020E0,3.088527918E-2,-5.604974926E-2,2.308425903E-1,2.395491106E-1
4.765134010E0,-1.273355484E-1,-2.611805499E-2,9.538650513E-2,1.612298981E-1
4.770109999E0,-2.403037548E-1,1.822164655E-2,-3.995990753E-1,4.666447728E-1
4.775085989E0,-2.662801445E-1,4.897856712E-2,-7.714986801E-1,8.176271943E-1
4.780061978E0,-2.339652181E-1,5.202510953E-2,-7.649583817E-1,8.016281313E-1
4.785037968E0,-1.804875433E-1,3.196954727E-2,-4.259424210E-1,4.637076139E-1
4.790013957E0,-1.420571804E-1,-1.912504435E-3,-9.004592896E-3,1.423551294E-1
4.794989947E0,-1.361535788E-1,-2.618306875E-2,3.474159241E-1,3.740603887E-1
4.799965937E0,-1.287063956E-1,-3.177347779E-2,5.108366013E-1,5.277583949E-1
4.804941926E0,-1.342291236E-1,-3.324237466E-2,4.876337051E-1,5.068620557E-1
4.809917916E0,-1.578791440E-1,-2.091169357E-2,3.363723755E-1,3.721686419E-1
4.814893905E0,-1.476814747E-1,1.469936967E-2,2.100954056E-1,2.572274653E-1
4.819869895E0,-1.470144391E-1,2.271845937E-3,1.133651733E-1,1.856611675E-1
4.824845885E0,-1.085708141E-1,-6.718827784E-2,3.170490265E-2,1.315564032E-1
4.829821874E0,-8.954703808E-2,-1.030804366E-1,3.146266937E-2,1.401219041E-1
4.834797864E0,-8.746683598E-3,-9.624230862E-2,6.920337677E-2,1.188620789E-1
4.839773853E0,9.093785286E-2,-8.042038977E-2,1.255970001E-1,1.746760963E-1
4.844749843E0,1.811182499E-1,-4.155388474E-2,1.577367783E-1,2.437446143E-1
4.849725832E0,2.570749521E-1,-3.202040493E-2,1.420841217E-1,2.954669778E-1
4.854701822E0,2.569903731E-1,-3.884732723E-3,9.329223633E-2,2.734274756E-1
4.859677812E0,2.665594220E-1,-1.412948966E-2,5.914592743E-2,2.734077700E-1
4.864653801E0,2.188094258E-1,-1.489488780E-2,6.309509277E-3,2.194065460E-1
4.869629791E0,1.853951812E-1,-2.979989350E-2,-3.657150269E-2,1.913031146E-1
4.874605780E0,1.663491726E-1,-3.497724235E-2,-8.858394623E-2,1.916835158E-1
4.879581770E0,9.951573610E-2,-3.516383469E-2,-1.448850632E-1,1.792527783E-1
4.884557760E0,8.005380630E-2,-4.948793352E-2,-2.434110641E-1,2.609724384E-1
4.889533749E0,4.139959812E-2,-6.328082085E-2,-3.173599243E-1,3.262448629E-1
4.894509739E0,4.585552216E-2,-7.154138386E-2,-2.530050278E-1,2.668940662E-1
4.899485728E0,6.947642565E-2,-4.108338058E-2,-1.084909439E-1,1.352224197E-1
4.904461770E0,4.547035694E-2,-4.387193918E-2,-3.166961670E-2,7.067718889E-2
4.909437812E0,2.171921730E-2,-5.160188675E-2,6.825637817E-2,8.828030515E-2
4.914413853E0,3.155744076E-2,-2.668966353E-2,1.626052856E-1,1.677757108E-1
4.919389895E0,1.793020964E-2,1.154372096E-2,1.659393311E-1,1.673039495E-1
4.924365937E0,-1.271367073E-4,1.560500264E-2,1.217603683E-1,1.227563423E-1
4.929341978E0,-8.435130119E-3,9.932965040E-3,5.895423889E-2,6.037729290E-2
4.934318020E0,-2.622348070E-2,-5.236819386E-3,2.516651154E-2,3.672122711E-2
4.939294062E0,-4.882013798E-2,3.469154239E-3,-3.206729889E-2,5.851284100E-2
4.944270103E0,-5.244159698E-2,-1.628203690E-2,-7.931613922E-2,9.646904043E-2
4.949246145E0,-2.795606852E-2,-7.216364145E-3,-7.866287231E-2,8.379418332E-2
4.954222187E0,-4.677122831E-2,2.081926167E-2,-7.799243927E-2,9.329421224E-2
4.959198228E0,-2.764862776E-2,2.963067591E-2,-7.256507874E-2,8.311506617E-2
4.964174270E0,-3.252959251E-2,4.786232114E-2,-2.918815613E-2,6.481454028E-2
4.969150312E0,-2.782142162E-2,5.164507031E-2,1.857376099E-2,6.153234423E-2
4.974126353E0,-3.734773397E-2,6.025110185E-2,3.269290924E-2,7.806327448E-2
4.979102395E0,-2.754467726E-2,4.504632950E-2,4.192924500E-2,6.742360590E-2
4.984078437E0,-4.605698586E-2,3.961956501E-2,5.581569672E-2,8.250059320E-2
4.989054478E0,-4.056960344E-2,2.484394610E-2,5.058288574E-2,6.943876951E-2
4.994030520E0,-5.882018805E-2,2.924028039E-2,5.488586426E-2,8.559945452E-2
4.999006562E0,-5.312472582E-2,2.405150235E-2,5.915164948E-2,8.306400480E-2
5.003982603E0,-5.702638626E-2,1.416082680E-2,4.913997650E-2,7.659813990E-2
5.008958645E0,-3.230160475E-2,1.849511266E-2,5.345249176E-2,6.513548754E-2
5.013934687E0,-4.102230072E-2,1.809622347E-2,2.448844910E-2,5.108802795E-2
5.018910728E0,-4.502350092E-2,8.251741529E-3,-8.976936340E-3,4.664538840E-2
5.023886770E0,-5.373984575E-2,2.713470161E-2,-4.216670990E-2,7.350030256E-2
5.028862812E0,-4.813808203E-2,3.171773255E-2,-5.134105682E-2,7.719581346E-2
5.033838801E0,-6.637585163E-2,3.166510165E-2,-3.194713593E-2,8.018136838E-2
5.038814791E0,-5.602198839E-2,2.701880038E-2,-1.746368408E-2,6.460231435E-2
5.043790780E0,-4.570180178E-2,3.195632994E-2,6.391525269E-3,5.613121506E-2
5.048766770E0,-4.016339779E-2,2.265535295E-2,1.104927063E-2,4.741782282E-2
5.053742760E0,-2.997410297E-2,1.818037033E-2,2.042007446E-2,4.057033591E-2
5.058718749E0,-3.406256437E-2,1.368789375E-2,2.971076965E-2,4.722654508E-2
5.063694739E0,-1.901876926E-2,9.126588702E-3,5.316543579E-2,5.719765527E-2
5.068670728E0,-3.997325897E-3,-9.745091200E-3,7.167148590E-2,7.244133701E-2
5.073646718E0,-1.759076118E-2,-1.917171478E-2,7.578277588E-2,8.012501886E-2
5.078622707E0,-2.627092600E-2,-1.448015869E-2,5.611896515E-2,6.363312658E-2
5.083598697E0,-1.113748550E-2,-5.230352283E-3,6.511402130E-2,6.626640128E-2
5.088574687E0,3.711318970E-2,7.505698502E-2,7.878494263E-2,1.149695918E-1
5.093550676E0,-5.565285683E-4,5.003722012E-2,5.910968781E-2,7.744668046E-2
5.098526666E0,-4.286539555E-2,-3.268361092E-3,2.061748505E-2,4.767813974E-2
5.103502655E0,-4.214167595E-2,-1.817996800E-2,6.193161011E-3,4.631184872E-2
5.108478645E0,-2.253550291E-2,-2.341221273E-2,1.088905334E-2,3.427173878E-2
5.113454635E0,-1.249045134E-2,-1.439693570E-2,4.877948761E-2,5.237099907E-2
5.118430624E0,2.141815424E-2,8.534520864E-3,6.735420227E-2,7.119103835E-2
5.123406614E0,2.201074362E-2,7.429331541E-3,3.827857971E-2,4.477630474E-2
5.128382603E0,2.264994383E-2,1.103033125E-2,-5.435943604E-5,2.519307679E-2
5.133358593E0,1.858806610E-2,-3.278397024E-2,-4.757022858E-2,6.068963299E-2
5.138334582E0,1.956480742E-2,-3.808732331E-2,-7.571697235E-2,8.698554931E-2
5.143310572E0,-3.159046173E-3,-5.258269608E-2,-8.464431763E-2,9.969744233E-2
5.148286562E0,-2.056598663E-3,-5.249921978E-2,-7.450199127E-2,9.116438108E-2
5.153262551E0,-2.491313219E-2,-6.185868382E-2,-5.968284607E-2,8.949415084E-2
5.158238541E0,-2.894431353E-2,-4.740089178E-2,-3.546714783E-2,6.589792411E-2
5.163214530E0,-1.880198717E-2,-2.376599610E-2,7.551193237E-3,3.123071904E-2
5.168190520E0,-3.892719746E-3,-5.179554224E-3,4.545879364E-2,4.591822044E-2
5.173166510E0,1.702964306E-3,8.403748274E-3,4.979419708E-2,5.052707329E-2
5.178142499E0,2.196103334E-2,3.611929715E-2,3.981876373E-2,5.807258008E-2
5.183118489E0,-3.272294998E-4,3.057351708E-2,4.414463043E-2,5.369911938E-2
5.188094478E0,3.925073147E-2,2.052809298E-2,1.101627350E-1,1.187343703E-1
5.193070468E0,1.957833767E-3,5.763158202E-3,1.139383316E-1,1.141007910E-1
5.198046457E0,-4.116201401E-2,-1.837901771E-2,-1.766376495E-1,1.822990919E-1
5.203022447E0,-8.505660295E-2,-5.088679492E-2,-5.549669266E-1,5.637485088E-1
5.207998437E0,-2.396458387E-2,-6.237672269E-2,-6.405372620E-1,6.440133079E-1
5.212974426E0,4.740351439E-2,-2.484998107E-2,-3.171386719E-1,3.216233075E-1
5.217950416E0,8.720153570E-2,-5.473631620E-2,1.031570435E-1,1.457448035E-1
5.222926405E0,1.578853130E-1,-5.294695497E-3,4.971981049E-2,1.656136028E-1
5.227902395E0,1.178414822E-1,2.763129771E-2,3.054838181E-1,3.285885978E-1
5.232878385E0,-8.933037519E-2,2.997498214E-2,3.695936203E-1,3.814155996E-1
5.237854374E0,-9.723508358E-2,5.425246060E-2,4.193849564E-1,4.339144300E-1
5.242830364E0,8.841776848E-2,8.140218258E-2,5.781049728E-1,5.904653900E-1
5.247806353E0,2.770936489E-1,8.357414603E-2,4.408378601E-1,5.273552380E-1
5.252782343E0,3.812853694E-1,3.396618366E-2,8.105850220E-2,3.912834207E-1
5.257758332E0,3.917472363E-1,-4.672670364E-2,-1.052598953E-1,4.083245370E-1
5.262734322E0,3.116982579E-1,-6.794020534E-2,2.779197693E-2,3.202250294E-1
5.267710312E0,1.482989788E-1,-5.432088673E-2,4.091072083E-2,1.631472737E-1
5.272686301E0,-7.726114988E-2,-3.965163231E-2,-2.356424332E-1,2.511352097E-1
5.277662291E0,-2.104537189E-1,9.366005659E-3,-6.900835037E-1,7.215218167E-1
5.282638280E0,-2.864243686E-1,4.037147760E-2,-1.031220436E0,1.071020244E0
5.287614270E0,-2.767947018E-1,4.892373085E-2,-1.017856598E0,1.055954967E0
5.292590260E0,-2.185573876E-1,3.494369984E-2,-6.672830582E-1,7.030327685E-1
5.297566249E0,-1.811281443E-1,1.698693633E-2,-1.723585129E-1,2.506061005E-1
5.302542239E0,-1.433395445E-1,-5.422189832E-3,2.091884613E-1,2.536443130E-1
5.307518228E0,-1.565029919E-1,-2.801607549E-2,4.355230331E-1,4.636360635E-1
5.312494218E0,-1.727619469E-1,-3.205198050E-2,5.126943588E-1,5.419681959E-1
5.317470207E0,-1.784122288E-1,6.064221263E-3,4.562225342E-1,4.899047855E-1
5.322446197E0,-1.881457269E-1,2.419553697E-2,3.812074661E-1,4.257973354E-1
5.327422187E0,-1.974904537E-1,-2.486798167E-2,2.878198624E-1,3.499445227E-1
5.332398176E0,-1.970586181E-1,-7.882699370E-2,1.952114105E-1,2.883631195E-1
5.337374166E0,-1.300534308E-1,-1.329410076E-1,1.081314087E-1,2.151269577E-1
5.342350155E0,-4.956978559E-2,-1.682728976E-1,8.353519440E-2,1.942963212E-1
5.347326145E0,4.427915812E-2,-1.613367349E-1,1.351490021E-1,2.150707759E-1
5.352302135E0,1.519001126E-1,-1.457338035E-1,2.148218155E-1,3.007663514E-1
5.357278124E0,2.309570909E-1,-1.072395295E-1,2.130718231E-1,3.320257465E-1
5.362254114E0,2.722943425E-1,-6.947839260E-2,9.732341766E-2,2.973941890E-1
5.367230103E0,2.664740682E-1,-4.638701677E-2,-2.699661255E-2,2.718253142E-1
5.372206093E0,2.417621017E-1,-1.853993535E-2,-1.028032303E-1,2.633650454E-1
5.377182082E0,1.932032704E-1,-1.450969279E-2,-1.494712830E-1,2.447032883E-1
5.382158072E0,1.493352056E-1,-1.511019468E-2,-1.719827652E-1,2.282704386E-1
5.387134062E0,8.632254601E-2,-2.504499257E-2,-1.942777634E-1,2.140623342E-1
5.392110051E0,4.215753078E-2,-1.579359174E-2,-2.163476944E-1,2.209819445E-1
5.397086041E0,4.563868046E-2,-6.513133645E-3,-2.192287445E-1,2.240235534E-1
5.402062030E0,3.984916210E-2,-1.593734324E-2,-1.413850784E-1,1.477555245E-1
5.407038020E0,5.805516243E-2,-1.542262733E-2,-1.021986008E-1,1.185445626E-1
5.412014010E0,5.696213245E-2,-5.161225796E-3,-9.182548523E-2,1.081815258E-1
5.416989999E0,9.366375208E-2,6.208972633E-2,-4.828929901E-2,1.223106249E-1
5.421965989E0,3.989166021E-2,2.869500220E-2,5.187129974E-2,7.145193799E-2
5.426941978E0,6.124377251E-3,2.826175094E-2,1.321792603E-1,1.353055483E-1
5.431917968E0,3.017884493E-2,3.704307973E-2,1.215686798E-1,1.306211941E-1
5.436893957E0,3.059804440E-2,6.929107010E-2,6.354618073E-2,9.887168352E-2
5.441869947E0,3.101164103E-2,6.808875501E-2,2.025222778E-2,7.751098740E-2
5.446845937E0,5.041575432E-2,6.225089729E-2,-1.318740845E-2,8.118392845E-2
5.451821926E0,7.721781731E-3,5.171318352E-2,-1.784420013E-2,5.524757679E-2
5.456797916E0,-1.532375813E-3,5.540911853E-2,-3.194713593E-2,6.397763739E-2
5.461773905E0,3.331363201E-3,5.896814167E-2,-2.692317963E-2,6.490914662E-2
5.466749895E0,-1.574116945E-2,5.294576287E-2,-4.092311859E-2,6.874401688E-2
5.471725885E0,-3.006178141E-2,5.172535777E-2,-5.479717255E-2,8.112923922E-2
5.476701874E0,-3.967005014E-2,4.582135379E-2,-4.480457306E-2,7.537081072E-2
5.481677864E0,-4.930120707E-2,5.431501567E-2,-3.489112854E-2,8.122881753E-2
5.486653853E0,-4.920178652E-2,5.819845200E-2,3.417015076E-3,7.628598563E-2
5.491629843E0,-5.844461918E-2,5.734924972E-2,1.290321350E-2,8.289271906E-2
5.496605832E0,-6.750988960E-2,6.136500835E-2,2.230167389E-2,9.391812446E-2
5.501581822E0,-3.396892548E-2,7.489576936E-2,3.163337708E-2,8.811319260E-2
5.506557812E0,-6.739240885E-2,6.931972504E-2,2.665519714E-2,1.002868914E-1
5.511533801E0,-5.330842733E-2,6.853543222E-2,2.740859985E-3,8.687005357E-2
5.516509791E0,-6.803864241E-2,5.831213295E-2,2.779960632E-3,8.965093358E-2
5.521485780E0,-4.935520887E-2,4.817403853E-2,-1.142978668E-2,6.990933167E-2
5.526461770E0,-3.552442789E-2,2.867487073E-2,-2.077770233E-2,5.015920755E-2
5.531437760E0,-4.555022717E-2,1.888342202E-2,-2.530002594E-2,5.542109828E-2
5.536413749E0,-3.159666061E-2,9.279727936E-3,-2.979660034E-2,4.441058100E-2
5.541389739E0,-4.614639282E-2,1.884971559E-2,-2.951622009E-2,5.793106763E-2
5.546365728E0,-4.627901316E-2,9.452089667E-3,-5.298614502E-2,7.098324184E-2
5.551341718E0,-6.540453434E-2,2.877812088E-2,-4.302501678E-2,8.340914472E-2
5.556317707E0,-2.264261246E-2,5.315974355E-3,-5.689144135E-2,6.146204992E-2
5.561293697E0,1.976430416E-2,-1.795391738E-2,-2.315711975E-2,3.534434981E-2
5.566269687E0,9.589016438E-3,-1.244904101E-2,-2.294635773E-2,2.781120622E-2
5.571245676E0,-3.973245621E-4,-2.583299577E-2,-1.799774170E-2,3.148682651E-2
5.576221666E0,-8.011460304E-4,-5.923882127E-3,5.904197693E-3,8.402009570E-3
5.581197655E0,-2.019560337E-2,-9.820327163E-3,2.010822296E-2,3.014368676E-2
5.586173645E0,-6.239295006E-3,5.579590797E-4,2.469921112E-2,2.548119209E-2
5.591149635E0,-2.094054222E-2,-3.450453281E-3,3.875446320E-2,4.418506936E-2
5.596125624E0,-3.567487001E-2,-1.232503355E-2,3.845977783E-2,5.388652256E-2
5.601101614E0,-3.134506941E-2,-3.077371418E-2,9.683609009E-3,4.498118656E-2
5.606077603E0,-1.296144724E-2,-5.851095915E-2,4.899024963E-3,6.012929320E-2
5.611053593E0,-9.080529213E-3,-4.327730834E-2,2.390289307E-2,5.026658657E-2
5.616029582E0,-1.008337736E-2,-4.721608758E-2,3.325939178E-2,5.862781394E-2
5.621005572E0,2.691006660E-2,-4.642499983E-2,4.253864288E-2,6.847604276E-2
5.625981562E0,1.125884056E-2,-2.685230970E-2,1.376438141E-2,3.220661769E-2
5.630957551E0,3.852587938E-2,-4.083664715E-2,-1.951789856E-2,5.943755965E-2
5.635933541E0,4.192614555E-2,-4.531037807E-2,-3.353404999E-2,7.025214980E-2
5.640909530E0,6.454932690E-2,-5.449534953E-2,-1.895809174E-2,8.657810327E-2
5.645885520E0,4.470944405E-2,-6.834897399E-2,-4.533767700E-3,8.179897115E-2
5.650861510E0,3.963822126E-2,-6.298364699E-2,-3.299140930E-2,8.140369439E-2
5.655837499E0,3.471100330E-2,-6.700237095E-2,-7.071876526E-2,1.034181571E-1
5.660813489E0,1.179456711E-3,-7.083329558E-2,-8.913135529E-2,1.138558096E-1
5.665789478E0,-2.298825979E-2,-6.502909958E-2,-8.837127686E-2,1.121014115E-1
5.670765468E0,-3.301876783E-2,-4.492162168E-2,-4.011631012E-2,6.868412816E-2
5.675741457E0,-1.468038559E-2,-2.033609152E-2,7.753372192E-3,2.625233551E-2
5.680717447E0,-1.244425774E-3,-5.654826760E-3,4.573154449E-2,4.609663570E-2
5.685693437E0,2.652972937E-2,1.350162923E-2,4.064655304E-2,5.038117512E-2
5.690669426E0,3.079277277E-2,1.350446045E-2,7.083892822E-3,3.436199710E-2
5.695645416E0,4.972869158E-2,-1.002947986E-2,-2.491950989E-3,5.079117101E-2
5.700621405E0,4.497122765E-2,-2.361646295E-2,6.871700287E-2,8.545276544E-2
5.705597395E0,2.559745312E-2,-3.244788945E-2,1.156196594E-1,1.227843670E-1
5.710573385E0,-5.157428980E-2,-3.656008840E-2,-1.227130890E-1,1.380400291E-1
5.715549374E0,-7.225579023E-2,-4.940482974E-2,-5.062046051E-1,5.137166910E-1
5.720525364E0,-5.988740921E-2,-6.043618917E-2,-6.585826874E-1,6.640558643E-1
5.725501353E0,-4.422664642E-3,-2.229578793E-2,-4.583644867E-1,4.589277337E-1
5.730477343E0,9.465277195E-2,-3.226807714E-2,4.401111603E-2,1.092582005E-1
5.735453332E0,2.002217174E-1,8.271768689E-3,1.498413086E-2,2.009519406E-1
5.740429322E0,1.914153099E-1,5.140414834E-2,3.613357544E-1,4.121234460E-1
5.745405312E0,-3.520798683E-2,5.871120095E-2,6.481409073E-1,6.517463028E-1
5.750381301E0,-1.093118191E-1,5.415260792E-2,6.338491440E-1,6.454814607E-1
5.755357291E0,3.346031904E-2,5.709713697E-2,6.958484650E-1,6.989883849E-1
5.760333280E0,2.159498930E-1,6.365850568E-2,4.105300903E-1,4.682111881E-1
5.765309270E0,3.128170967E-1,2.325522900E-2,-4.377937317E-2,3.167206580E-1
5.770285260E0,3.391340375E-1,-1.961752772E-2,-2.336044312E-1,4.122714798E-1
5.775261249E0,2.751070857E-1,-1.741334796E-2,-4.351615906E-3,2.756919837E-1
5.780237239E0,1.332672834E-1,-4.523307085E-3,1.658315659E-1,2.127927099E-1
5.785213228E0,-2.193498611E-2,3.290793300E-2,-1.677894592E-2,4.296054814E-2
5.790189218E0,-1.786737144E-1,6.635712087E-2,-4.921035767E-1,5.277248278E-1
5.795165207E0,-2.771683037E-1,9.152999520E-2,-9.679346085E-1,1.010988336E0
5.800141197E0,-3.423616290E-1,7.086125016E-2,-1.135586739E0,1.188187714E0
5.805117187E0,-3.312183917E-1,5.195356905E-2,-9.121837616E-1,9.718456725E-1
5.810093176E0,-2.897997499E-1,2.457784116E-2,-4.530458450E-1,5.383665136E-1
5.815069166E0,-2.347816229E-1,7.119432092E-3,6.402301788E-2,2.434585048E-1
5.820045155E0,-1.974696219E-1,3.583237529E-3,4.769678116E-1,5.162415950E-1
5.825021145E0,-1.626001894E-1,1.814179122E-2,7.058811188E-1,7.245937483E-1
5.829997135E0,-1.825913489E-1,1.250593364E-2,7.143211365E-1,7.373945247E-1
5.834973124E0,-1.962321699E-1,-8.192867041E-3,6.039018631E-1,6.350367295E-1
5.839949114E0,-1.900490224E-1,-3.422701359E-2,4.706268311E-1,5.087039743E-1
5.844925103E0,-1.506287158E-1,-7.030499727E-2,3.099842072E-1,3.517413984E-1
5.849901093E0,-8.345955610E-2,-8.300146461E-2,1.792106628E-1,2.144089604E-1
5.854877082E0,-3.170728683E-3,-9.140957892E-2,1.350479126E-1,1.631064172E-1
5.859853072E0,5.244988203E-2,-9.551720321E-2,1.577587128E-1,1.917350716E-1
5.864829062E0,1.365115047E-1,-9.061521292E-2,2.135028839E-1,2.691282021E-1
5.869805051E0,2.017031908E-1,-4.823303223E-2,1.975088120E-1,2.863919227E-1
5.874781041E0,2.007994056E-1,-3.980425000E-2,9.137153625E-2,2.241730074E-1
5.879757030E0,2.099152803E-1,-7.703334093E-3,-4.240608215E-2,2.142942885E-1
5.884733020E0,1.809682250E-1,-9.061351418E-3,-1.133394241E-1,2.137227915E-1
5.889709010E0,1.424553990E-1,-5.398556590E-3,-1.219358444E-1,1.875927378E-1
5.894684999E0,1.083931923E-1,-6.356790662E-3,-1.161766052E-1,1.590172837E-1
5.899660989E0,7.404750586E-2,-2.503558993E-3,-1.341714859E-1,1.532686809E-1
5.904636978E0,1.542007923E-2,-8.223935962E-3,-1.804504395E-1,1.812947133E-1
5.909612968E0,9.048700333E-3,-1.368030906E-2,-2.690525055E-1,2.695519997E-1
5.914588957E0,3.601872921E-2,-2.321173251E-2,-2.572135925E-1,2.607584429E-1
5.919564947E0,4.397618771E-2,-3.194348514E-2,-1.505308151E-1,1.600431743E-1
5.924540937E0,4.231804609E-2,-6.948113441E-3,-8.747768402E-2,9.742401402E-2
5.929516926E0,5.466318130E-2,8.441284299E-3,-2.968215942E-2,6.277220132E-2
5.934492916E0,6.700640917E-2,5.658890307E-2,6.561946869E-2,1.095357361E-1
5.939468905E0,1.083539128E-1,1.036188453E-1,2.028360367E-1,2.522298422E-1
5.944444895E0,1.073917150E-1,1.162972748E-1,2.296543121E-1,2.789249714E-1
5.949420885E0,5.956888199E-2,1.143192351E-1,1.659908295E-1,2.101673016E-1
5.954396874E0,2.654445171E-2,8.371214569E-2,7.436084747E-2,1.150733109E-1
5.959372864E0,1.263487339E-2,5.351440609E-2,1.199245453E-2,5.627833197E-2
5.964348853E0,-1.065784693E-2,3.787226975E-2,-3.561115265E-2,5.306649329E-2
5.969324843E0,-2.441394329E-2,2.710901201E-2,-4.007148743E-2,5.419098877E-2
5.974300832E0,-2.391284704E-2,1.648689806E-2,-5.398464203E-2,6.130239503E-2
5.979276822E0,-3.296446800E-2,3.454723954E-2,-8.677482605E-2,9.904563770E-2
5.984252812E0,-4.209399223E-2,3.366543353E-2,-1.097888947E-1,1.223064470E-1
5.989228801E0,-1.331168413E-2,4.248680174E-2,-1.041135788E-1,1.132341227E-1
5.994204791E0,-1.800668240E-2,3.243947029E-2,-6.525039673E-2,7.506113586E-2
5.999180780E0,-1.316344738E-2,3.676582873E-2,-2.671241760E-2,4.731337827E-2
6.004156770E0,-3.662467003E-3,2.680711448E-2,1.625728607E-2,3.156476519E-2
6.009132760E0,-8.536458015E-3,2.652777731E-2,3.987598419E-2,4.864861971E-2
6.014108749E0,-2.766680717E-2,2.619931102E-2,3.955936432E-2,5.492539870E-2
6.019084739E0,-4.684358835E-2,2.107365429E-2,2.976417542E-2,5.936604091E-2
6.024060728E0,-6.606727839E-2,1.599420607E-2,5.819320679E-3,6.822436804E-2
6.029036718E0,-5.194389820E-2,6.212085485E-3,-8.425712585E-3,5.298821755E-2
6.034012707E0,-4.258376360E-2,1.545405388E-2,5.932807922E-3,4.568810473E-2
6.038988697E0,-4.264539480E-2,5.628496408E-3,2.016067505E-2,4.750539430E-2
6.043964687E0,-4.740464687E-2,5.853772163E-4,2.477169037E-2,5.348999771E-2
6.048940676E0,-1.878178120E-2,3.842115402E-4,-3.904342651E-3,1.918715234E-2
6.053916666E0,-9.392559528E-3,-4.611715674E-3,-4.183673859E-2,4.312540773E-2
6.058892655E0,-2.387660742E-2,-4.659652710E-3,-7.470417023E-2,7.856537274E-2
6.063868645E0,-3.354293108E-2,-1.399841905E-2,-6.931018829E-2,7.826229081E-2
6.068844635E0,-1.009696722E-2,-3.254362941E-2,-5.445480347E-2,6.423676660E-2
6.073820624E0,-1.069176197E-2,-2.228899300E-2,-3.497123718E-2,4.282639855E-2
6.078796614E0,-1.128256321E-2,-3.100745380E-2,-6.155014038E-3,3.356549749E-2
6.083772603E0,-7.069587708E-3,-2.055282891E-2,-1.326560974E-3,2.177516040E-2
6.088748593E0,2.062559128E-3,-3.382498026E-2,1.294231415E-2,3.627515589E-2
6.093724582E0,1.122152805E-2,-1.849548519E-2,3.183364868E-2,3.848878866E-2
6.098700572E0,6.264388561E-3,-1.273928583E-2,5.055332184E-2,5.250876419E-2
6.103676562E0,1.569592953E-2,-7.130339742E-3,7.386016846E-2,7.584542460E-2
6.108652551E0,-3.288745880E-3,-1.564577222E-3,8.746528625E-2,8.754107636E-2
6.113628541E0,-7.767856121E-3,8.655458689E-3,6.296253204E-2,6.402762681E-2
6.118604530E0,-2.816498280E-3,1.409679651E-2,3.392219543E-2,3.684247111E-2
6.123580520E0,-1.235866547E-2,2.434772253E-2,-1.860618591E-2,3.304146423E-2
6.128556510E0,1.612544060E-3,2.997048199E-2,-7.542800903E-2,8.118013695E-2
6.133532499E0,-8.635163307E-3,2.155809104E-2,-7.952404022E-2,8.284558110E-2
6.138508489E0,9.538292885E-3,3.241905570E-2,-4.084205627E-2,5.300988365E-2
6.143484478E0,1.801306009E-2,2.419196069E-2,-7.226943970E-3,3.101531904E-2
6.148460468E0,2.657067776E-2,6.437167525E-3,1.185417175E-2,2.979864813E-2
6.153436457E0,3.051424026E-2,-1.137533784E-2,2.601718903E-2,4.168226595E-2
6.158412447E0,2.544242144E-2,-5.348265171E-3,-7.456779480E-3,2.704670607E-2
6.163388437E0,4.936689138E-2,-1.831398904E-2,-3.593635559E-2,6.374883381E-2
6.168364426E0,4.016220570E-2,-2.622099221E-2,-7.370090485E-2,8.793387614E-2
6.173340416E0,2.628481388E-2,-3.359578550E-2,-9.216499329E-2,1.015576399E-1
6.178316405E0,1.701635122E-2,-5.480184406E-2,-8.672142029E-2,1.039875140E-1
6.183292395E0,7.412135601E-3,-2.818498015E-2,-4.330825806E-2,5.220093942E-2
6.188268385E0,-1.196885109E-2,-6.538495421E-3,9.265899658E-3,1.648824476E-2
6.193244374E0,-2.956092358E-3,1.478046179E-2,6.617069244E-2,6.786575772E-2
6.198220364E0,-2.251106501E-2,4.042039812E-2,6.087589264E-2,7.646195744E-2
6.203196353E0,-1.325857639E-2,4.665063322E-2,1.763057709E-2,5.160337853E-2
6.208172343E0,5.823612213E-3,5.283610523E-2,-2.528190613E-2,5.886206972E-2
6.213148332E0,2.056330442E-2,2.578544617E-2,3.659057617E-2,4.926062309E-2
6.218124322E0,2.114063501E-2,2.265127003E-2,1.834068298E-1,1.860055690E-1
6.223100312E0,7.108747959E-3,-4.768401384E-3,2.530574799E-1,2.532022118E-1
6.228076301E0,-2.672612667E-2,-1.822835207E-2,-5.445480347E-3,3.280566906E-2
6.233052291E0,-9.429186583E-2,-5.015134066E-2,-3.899574280E-1,4.043178311E-1
6.238028280E0,-8.490639925E-2,-8.981402218E-2,-7.713165283E-1,7.811560933E-1
6.243004270E0,-3.260451555E-2,-6.561841071E-2,-6.699447632E-1,6.739397718E-1
6.247980260E0,1.431155205E-2,-5.124083906E-2,-5.361604691E-1,5.387935529E-1
6.252956249E0,5.629593134E-2,-1.866555959E-2,-2.847795486E-1,2.908900588E-1
6.257932239E0,1.353585720E-1,-4.041410983E-2,1.018737793E0,1.028485262E0
6.262908228E0,3.570729494E-2,-2.275481820E-2,1.390399933E0,1.391044487E0
6.267884218E0,2.453100681E-2,-4.641798139E-2,9.044647217E-1,9.059872141E-1
6.272860207E0,1.129512191E-1,-2.887899429E-2,4.938535690E-1,5.074281445E-1
6.277836197E0,1.647516489E-1,7.520511746E-3,-1.888895035E-1,2.507566718E-1
6.282812187E0,1.718260050E-1,-1.954361796E-3,-7.379894257E-1,7.577310789E-1
6.287788176E0,1.870872974E-1,-2.280691266E-2,-6.797504425E-1,7.053952624E-1
6.292764166E0,1.961718202E-1,-8.100360632E-3,-2.091598511E-1,2.868742620E-1
6.297740155E0,1.838591099E-1,7.746532559E-3,1.481027603E-1,2.362172912E-1
6.302716145E0,6.729263067E-2,2.859580517E-2,1.082544327E-1,1.306332286E-1
6.307692135E0,-5.551427603E-2,3.552235663E-2,-3.109712601E-1,3.178785889E-1
6.312668124E0,-2.056165636E-1,5.285750329E-2,-7.216501236E-1,7.522306746E-1
6.317644114E0,-2.786248922E-1,3.798143566E-2,-8.056879044E-1,8.533507012E-1
6.322620103E0,-2.689915597E-1,1.455776393E-2,-5.374059677E-1,6.011435451E-1
6.327596093E0,-2.320218980E-1,-3.205675632E-2,-1.620664597E-1,2.848286048E-1
6.332572082E0,-1.894801855E-1,-7.359407842E-2,1.815824509E-1,2.725637825E-1
6.337548072E0,-1.307887435E-1,-1.009057313E-1,3.940076828E-1,4.272349660E-1
6.342524062E0,-1.133722663E-1,-1.002746373E-1,5.048208237E-1,5.270221415E-1
6.347500051E0,-1.043133736E-1,-1.004797518E-1,5.434036255E-1,5.623743954E-1
6.352476041E0,-1.471025944E-1,-9.680278599E-2,4.961709976E-1,5.264936956E-1
6.357452030E0,-1.374050975E-1,-9.387493134E-2,3.686246872E-1,4.044463173E-1
6.362428020E0,-1.376972795E-1,-9.623353183E-2,2.089366913E-1,2.680969496E-1
6.367404010E0,-8.626770973E-2,-1.179299355E-1,1.076030731E-1,1.814607637E-1
6.372379999E0,-4.507201910E-2,-1.207124144E-1,6.887054443E-2,1.461031341E-1
6.377355989E0,3.877431154E-2,-1.048415303E-1,1.111698151E-1,1.576512654E-1
6.382332030E0,1.082426310E-1,-8.471830934E-2,1.293373108E-1,1.887373812E-1
6.387308072E0,1.447681189E-1,-4.613647610E-2,1.045589447E-1,1.844422825E-1
6.392284114E0,1.720592380E-1,-1.763800532E-2,1.821804047E-2,1.739177323E-1
6.397260155E0,1.473004818E-1,-3.516010940E-3,-3.894329071E-2,1.524020150E-1
6.402236197E0,1.417924166E-1,5.901567638E-3,-5.764579773E-2,1.531762250E-1
6.407212239E0,1.078896523E-1,6.008341908E-3,-4.295921326E-2,1.162831511E-1
6.412188280E0,5.976545811E-2,1.102450490E-2,-3.312683105E-2,6.921586976E-2
6.417164322E0,1.653194427E-2,2.571287006E-2,-6.134700775E-2,6.854131767E-2
6.422140364E0,-3.160637617E-2,2.140264958E-2,-1.557750702E-1,1.603836305E-1
6.427116405E0,-4.656797647E-2,3.158699721E-2,-2.636299133E-1,2.695682586E-1
6.432092447E0,-3.766375780E-2,2.347489446E-2,-2.328872681E-1,2.370782760E-1
6.437068489E0,-4.757201672E-2,1.146403700E-2,-1.359472275E-1,1.444858802E-1
6.442044530E0,-4.805481434E-2,1.451820135E-2,-6.830120087E-2,8.476495379E-2
6.447020572E0,-5.364274979E-2,2.255976945E-2,1.305103302E-2,5.963905822E-2
6.451996614E0,-2.408146858E-3,5.417782813E-2,1.079874039E-1,1.208400415E-1
6.456972655E0,1.056516171E-2,9.931932390E-2,1.736364365E-1,2.003136611E-1
6.461948697E0,2.389216423E-2,1.293329746E-1,1.294946671E-1,1.845717276E-1
6.466924739E0,1.357042789E-2,1.636986136E-1,2.872371674E-2,1.667526447E-1
6.471900780E0,-1.555776596E-2,1.599041522E-1,-4.747295380E-2,1.675263063E-1
6.476876822E0,-1.965045929E-3,1.515583992E-1,-1.040210724E-1,1.838319702E-1
6.481852864E0,1.657247543E-3,1.292974502E-1,-9.834289551E-2,1.624558469E-1
6.486828905E0,2.403753996E-2,1.073284820E-1,-6.895446777E-2,1.298149645E-1
6.491804947E0,5.577975512E-2,9.029488266E-2,-3.506660461E-2,1.117775186E-1
6.496780989E0,5.407035351E-2,6.859575957E-2,3.285408020E-3,8.740580796E-2
6.501757030E0,6.182175875E-2,6.126406044E-2,-6.162643433E-3,8.725361385E-2
6.506733072E0,5.051589012E-2,4.443364590E-2,1.770877838E-2,6.956870615E-2
6.511709114E0,4.431062937E-2,3.243302554E-2,3.661441803E-2,6.599961082E-2
6.516685155E0,9.923875332E-3,4.426734149E-2,7.433891296E-2,8.708820130E-2
6.521661145E0,-5.078732967E-3,5.594407767E-2,9.274864197E-2,1.084335923E-1
6.526637135E0,-2.950465679E-2,6.262098253E-2,7.777023315E-2,1.041159036E-1
6.531613124E0,-4.433298111E-2,6.428824365E-2,3.918266296E-2,8.737089082E-2
6.536589114E0,-5.929434299E-2,5.628656223E-2,5.685806274E-3,8.195318537E-2
6.541565103E0,-5.059480667E-2,5.300499499E-2,-8.521080017E-3,7.376972794E-2
6.546541093E0,-5.626487732E-2,4.965181649E-2,5.886077881E-3,7.527074606E-2
6.551517082E0,-5.228805542E-2,2.728508040E-2,2.491378784E-2,6.402509802E-2
6.556493072E0,-2.914464474E-2,9.801875800E-3,3.902053833E-2,4.967987015E-2
6.561469062E0,-2.503359318E-2,1.803316176E-3,3.400516510E-2,4.226445303E-2
6.566445051E0,-2.111124992E-2,-2.031872422E-2,5.521774292E-4,2.930597767E-2
6.571421041E0,-5.520921946E-2,-2.331767976E-2,5.367279053E-3,6.017125382E-2
6.576397030E0,-2.724123001E-2,-3.113907576E-2,1.013851166E-2,4.259713688E-2
6.581373020E0,-9.106278419E-3,-3.899417073E-2,-2.310943604E-2,4.623327472E-2
6.586349010E0,-1.011633873E-2,-3.733820841E-2,-2.284049988E-2,4.492405315E-2
6.591324999E0,-1.620829105E-3,-4.514161125E-2,-2.732181549E-2,5.279084916E-2
6.596300989E0,3.059774637E-2,-4.812753201E-2,-1.752471924E-2,5.966236003E-2
6.601276978E0,2.956575155E-2,-5.104105175E-2,1.591491699E-2,6.109506699E-2
6.606252968E0,7.153600454E-2,-5.382738262E-2,6.319046021E-3,8.974807747E-2
6.611228957E0,5.653482676E-2,-5.659830570E-2,-3.224372864E-3,8.006217225E-2
6.616204947E0,5.590456724E-2,-4.985699803E-2,6.306648254E-3,7.517190102E-2
6.621180937E0,5.527961254E-2,-5.282307789E-2,3.000545502E-2,8.213671804E-2
6.626156926E0,4.051762819E-2,-5.122943968E-2,7.249259949E-2,9.757720361E-2
6.631132916E0,3.088426590E-2,-5.465461686E-2,1.051101685E-1,1.224300312E-1
6.636108905E0,2.153712511E-2,-6.780922413E-2,9.945297241E-2,1.222817744E-1
6.641084895E0,-6.571888924E-3,-7.636280358E-2,8.433437347E-2,1.139594403E-1
6.646060885E0,-1.075559855E-2,-7.544701546E-2,6.934642792E-2,1.030381585E-1
6.651036874E0,-3.895550966E-2,-6.984179467E-2,3.551292419E-2,8.750186170E-2
6.656012864E0,-3.873819113E-2,-6.907534599E-2,2.097892761E-2,8.192781139E-2
6.660988853E0,-3.893411160E-2,-6.831922382E-2,1.609516144E-2,8.026478438E-2
6.665964843E0,-2.508866787E-2,-5.812381953E-2,4.450702667E-2,7.738665954E-2
6.670940832E0,-1.135855913E-2,-5.292013288E-2,7.268333435E-2,9.062242781E-2
6.675916822E0,7.211506367E-3,-4.811990261E-2,6.736946106E-2,8.310340026E-2
6.680892812E0,1.148402691E-2,-4.831001908E-2,-9.135246277E-3,5.048953893E-2
6.685868801E0,2.077835798E-2,-4.850642383E-2,-8.977413177E-2,1.041345670E-1
6.690844791E0,3.489792347E-2,-5.329136550E-2,-1.175193787E-1,1.336736289E-1
6.695820780E0,2.526032925E-2,-4.844046757E-2,-1.118030548E-1,1.244366754E-1
6.700796770E0,3.474855423E-2,-4.347959906E-2,-8.714389801E-2,1.034021108E-1
6.705772760E0,3.466069698E-2,-3.861150146E-2,-4.369640350E-2,6.783500305E-2
6.710748749E0,2.972233295E-2,-1.959383488E-2,8.894920349E-3,3.669407376E-2
6.715724739E0,1.063114405E-2,3.907052800E-3,2.780437469E-2,3.002281695E-2
6.720700728E0,1.247525215E-3,1.291119307E-2,-5.681037903E-3,1.416084098E-2
6.725676718E0,-1.755481958E-2,4.093716666E-2,-5.788230896E-2,7.303687422E-2
6.730652707E0,-2.670335770E-2,3.094336390E-2,-7.640933990E-2,8.665418805E-2
6.735628697E0,-2.132457495E-2,1.179294474E-2,1.441764832E-2,2.831394754E-2
6.740604687E0,8.111894131E-3,-2.397948876E-3,1.899318695E-1,1.901201411E-1
6.745580676E0,1.866924763E-2,-2.168587409E-2,3.924484253E-1,3.934902597E-1
6.750556666E0,-4.460394382E-3,-1.790171489E-2,2.941513062E-1,2.947292952E-1
6.755532655E0,-7.560241222E-2,-2.401055954E-2,-1.641559601E-1,1.823167873E-1
6.760508645E0,-1.417635679E-1,-4.316996038E-2,-7.895660400E-1,8.033524048E-1
6.765484635E0,-9.376913309E-2,-4.576429725E-2,-8.684120178E-1,8.746579068E-1
6.770460624E0,-6.057387590E-2,-1.876837015E-2,-7.613992691E-1,7.640355313E-1
6.775436614E0,2.044647932E-2,8.668228053E-3,-4.986248016E-1,4.991191135E-1
6.780412603E0,1.866754889E-1,1.109386794E-2,1.134247780E0,1.149560280E0
6.785388593E0,1.509525776E-1,2.356608957E-2,1.856138229E0,1.862415412E0
6.790364582E0,7.031977177E-2,1.235399954E-2,1.299612045E0,1.301571727E0
6.795340572E0,7.484918833E-2,2.262118831E-2,3.916749954E-1,3.994038322E-1
6.800316562E0,9.936350584E-2,4.262623563E-2,-6.749649048E-1,6.835698391E-1
6.805292551E0,5.450713634E-2,7.486645877E-2,-1.262779236E0,1.266170373E0
6.810268541E0,1.127777100E-1,3.454835340E-2,-1.124174118E0,1.130345013E0
6.815244530E0,1.927412748E-1,3.079205379E-2,-5.453767776E-1,5.792522587E-1
6.820220520E0,2.315611839E-1,3.334397078E-2,7.115459442E-2,2.445309359E-1
6.825196510E0,1.800439358E-1,5.045218766E-2,2.931594849E-1,3.477121304E-1
6.830172499E0,2.692854404E-2,6.238577887E-2,1.015567780E-2,6.870421880E-2
6.835148489E0,-1.719122529E-1,7.900041342E-2,-4.031219482E-1,4.453113441E-1
6.840124478E0,-2.594992220E-1,8.669391274E-2,-6.084384918E-1,6.671229865E-1
6.845100468E0,-2.872426808E-1,7.129351795E-2,-4.462089539E-1,5.354377217E-1
6.850076457E0,-2.437305450E-1,3.284532577E-2,-8.112621307E-2,2.589688330E-1
6.855052447E0,-1.847952604E-1,4.107128829E-3,3.045406342E-1,3.562459188E-1
6.860028437E0,-1.480417252E-1,-2.490393445E-2,5.111436844E-1,5.327329767E-1
6.865004426E0,-1.528430581E-1,-4.980394989E-2,5.402193069E-1,5.636296066E-1
6.869980416E0,-1.760855317E-1,-7.061577588E-2,4.692974091E-1,5.061943900E-1
6.874956405E0,-2.134318352E-1,-9.191729873E-2,3.799762726E-1,4.454030824E-1
6.879932395E0,-2.079365253E-1,-9.450139850E-2,3.151588440E-1,3.892212865E-1
6.884908385E0,-1.552081108E-1,-1.211620867E-1,2.461490631E-1,3.152128966E-1
6.889884374E0,-6.973141432E-2,-1.384634525E-1,1.872148514E-1,2.430720025E-1
6.894860364E0,1.018136740E-2,-1.323490292E-1,1.192836761E-1,1.784615397E-1
6.899836353E0,4.214876890E-2,-1.266497523E-1,6.139945984E-2,1.469236949E-1
6.904812343E0,1.122492552E-1,-1.072196215E-1,1.346206665E-2,1.558113275E-1
6.909788332E0,1.300981045E-1,-6.931770593E-2,-2.937030792E-2,1.503099336E-1
6.914764322E0,1.484670639E-1,-6.042445824E-2,-7.189750671E-2,1.756782163E-1
6.919740312E0,1.435579062E-1,-2.791428007E-2,-6.663417816E-2,1.607115215E-1
6.924716301E0,1.389469504E-1,4.384526983E-3,-5.668640137E-2,1.501293683E-1
6.929692291E0,1.297287345E-1,2.227961645E-2,-3.258323669E-2,1.356008598E-1
6.934668280E0,1.015933752E-1,4.023939744E-2,-3.931999207E-3,1.093429632E-1
6.939644270E0,7.369256020E-2,4.876231030E-2,1.498317719E-2,8.962617883E-2
6.944620260E0,6.486386061E-2,3.818473592E-2,5.262374878E-3,7.545254840E-2
6.949596249E0,3.665179014E-2,3.234092519E-2,-8.031749725E-2,9.402228208E-2
6.954572239E0,1.776021719E-2,2.200711891E-2,-2.173852921E-1,2.192170244E-1
6.959548228E0,2.705407143E-2,7.580789272E-3,-2.155685425E-1,2.173917838E-1
6.964524218E0,3.621906042E-2,-1.201464329E-3,-1.377887726E-1,1.424745932E-1
6.969500207E0,3.121644258E-2,-1.894888282E-2,-3.217792511E-2,4.867181230E-2
6.974476197E0,4.075813293E-2,1.098799240E-2,8.677768707E-2,9.650040596E-2
6.979452187E0,4.603737593E-2,3.546821326E-2,1.382198334E-1,1.499405098E-1
6.984428176E0,4.714143276E-2,5.918281525E-2,1.511983871E-1,1.690735715E-1
6.989404166E0,3.445392847E-2,6.814572215E-2,9.755325317E-2,1.238852285E-1
6.994380155E0,2.692931890E-2,5.778668448E-2,7.757091522E-2,1.004078483E-1
6.999356145E0,1.471918821E-2,4.751788452E-2,5.300807953E-2,7.269429377E-2
7.004332135E0,-7.194817066E-3,4.198018461E-2,1.821517944E-4,4.259265749E-2
7.009308124E0,-8.981823921E-4,3.158576414E-2,-5.691432953E-2,6.509768148E-2
7.014284114E0,-3.310507536E-2,2.112360485E-2,-8.026123047E-2,8.935333129E-2
7.019260103E0,-4.155838490E-2,2.489126660E-2,-8.439826965E-2,9.731260159E-2
7.024236093E0,-3.559291363E-2,2.377226576E-2,-5.527019501E-2,6.990544025E-2
7.029212082E0,-1.522594690E-2,3.695562482E-2,-1.690292358E-2,4.339650321E-2
7.034188072E0,-2.806252241E-2,5.478153378E-2,1.163196564E-2,6.264043608E-2
7.039164062E0,-2.174663544E-2,5.820943043E-2,4.942321777E-2,7.939715611E-2
7.044140051E0,-2.978014946E-2,7.590174675E-2,2.992057800E-2,8.685144472E-2
7.049116041E0,-4.724365473E-2,8.399715275E-2,3.907299042E-2,1.039912648E-1
7.054092030E0,-5.527049303E-2,7.778730989E-2,1.967334747E-2,9.743066037E-2
7.059068020E0,-8.248162270E-2,7.653202116E-2,-1.379013062E-2,1.133602049E-1
7.064044010E0,-9.098654985E-2,7.549683005E-2,-5.643367767E-2,1.310079523E-1
7.069019999E0,-1.047353148E-1,6.518675387E-2,-6.544017792E-2,1.396467541E-1
7.073995989E0,-1.046385169E-1,5.522365123E-2,-6.483745575E-2,1.349176287E-1
7.078971978E0,-1.097027659E-1,5.510933697E-2,-1.021966934E-1,1.597369714E-1
7.083947968E0,-9.629648924E-2,5.525698885E-2,-1.344537735E-1,1.743679038E-1
7.088923957E0,-9.786438942E-2,4.157316312E-2,-1.189107895E-1,1.595165899E-1
7.093899947E0,-9.043616056E-2,3.311567008E-2,-7.021903992E-2,1.191891787E-1
7.098875937E0,-6.913262606E-2,2.968672290E-2,-3.615474701E-2,8.347327257E-2
7.103851926E0,-6.720602512E-2,1.694759540E-2,-4.034614563E-2,8.019776973E-2
7.108827916E0,-5.600374937E-2,1.876587421E-2,-7.297706604E-2,9.388413149E-2
7.113803905E0,-5.939698219E-2,1.597872376E-2,-9.107017517E-2,1.098958503E-1
7.118779895E0,-3.937858343E-2,1.817289740E-2,-8.049297333E-2,9.143328600E-2
7.123755885E0,-1.472657919E-2,6.257561967E-3,-8.275032043E-3,1.801403263E-2
7.128731874E0,1.013153791E-2,-7.069502026E-4,4.906654358E-2,5.010662170E-2
7.133707864E0,2.590227127E-2,1.682359958E-3,8.689022064E-2,9.068444428E-2
7.138683853E0,5.650669336E-2,-1.040295605E-2,9.585285187E-2,1.117541816E-1
7.143659843E0,6.842738390E-2,-3.594747046E-3,9.520053864E-2,1.172960853E-1
7.148635832E0,6.646585464E-2,-2.079509571E-2,8.976840973E-2,1.136156381E-1
7.153611822E0,5.053228140E-2,-2.851719223E-2,8.911132812E-2,1.063370609E-1
7.158587812E0,4.933679104E-2,-4.103011265E-2,8.368301392E-2,1.054534775E-1
7.163563801E0,4.856264591E-2,-5.354547873E-2,8.776473999E-2,1.137017962E-1
7.168539791E0,3.870934248E-2,-5.656228215E-2,8.703041077E-2,1.107790475E-1
7.173515780E0,4.333811998E-2,-5.501098931E-2,3.880500793E-2,8.006391340E-2
7.178491770E0,3.373414278E-2,-5.827657878E-2,1.946830750E-2,7.009398705E-2
7.183467760E0,3.845572472E-2,-4.252500832E-2,1.928710938E-2,6.049141827E-2
7.188443749E0,3.828656673E-2,-3.171279281E-2,4.285812378E-2,6.563826014E-2
7.193419739E0,2.382200956E-2,-2.583789080E-2,4.249477386E-2,5.514427030E-2
7.198395728E0,4.266619682E-2,-2.016617730E-2,5.638313293E-2,7.352643564E-2
7.203371718E0,2.326232195E-2,-2.894556522E-2,5.117034912E-2,6.322488432E-2
7.208347707E0,3.225409985E-2,-3.321183100E-2,4.127216339E-2,6.202212627E-2
7.213323697E0,4.117107391E-2,-3.774701431E-2,1.721000671E-2,5.844723046E-2
7.218299687E0,3.581947088E-2,-5.675115064E-2,-6.838607788E-2,9.581431647E-2
7.223275676E0,5.905508995E-2,-7.089568675E-2,-1.390275955E-1,1.668603439E-1
7.228251666E0,8.220010996E-2,-7.541709393E-2,-1.711006165E-1,2.042547847E-1
7.233227655E0,7.211834192E-2,-8.439622074E-2,-1.411924362E-1,1.796081328E-1
7.238203645E0,6.232607365E-2,-6.946337223E-2,-8.305835724E-2,1.249335433E-1
7.243179635E0,4.316967726E-2,-5.465908349E-2,-6.418228149E-3,6.994590835E-2
7.248155624E0,3.372120857E-2,-3.053666092E-2,1.259613037E-2,4.720455559E-2
7.253131614E0,3.004074097E-4,2.770697698E-3,4.572200775E-2,4.580686633E-2
7.258107603E0,-1.890522242E-2,7.147040218E-3,5.010509491E-2,5.402784610E-2
7.263083593E0,-4.280203581E-2,2.568511479E-2,1.647186279E-2,5.256483287E-2
7.268059582E0,-5.215132236E-2,2.037758939E-2,-1.688861847E-2,5.848274966E-2
7.273035572E0,-1.378345490E-2,5.822947249E-3,4.023742676E-2,4.292948702E-2
7.278011562E0,-1.795780659E-2,-8.614521474E-3,2.298049927E-1,2.306664853E-1
7.282987551E0,2.610754967E-2,-2.334310859E-2,4.889612198E-1,4.902138098E-1
7.287963541E0,1.793277264E-2,-2.948521636E-2,5.654850006E-1,5.665370670E-1
7.292939530E0,-5.726975203E-2,-2.230939083E-2,7.634830475E-2,9.801324938E-2
7.297915520E0,-1.474292874E-1,-5.751009285E-2,-8.977012634E-1,9.115428481E-1
7.302891510E0,-1.245188713E-1,-8.993873745E-2,-1.364907265E0,1.373523122E0
7.307867499E0,-9.802442789E-2,-7.245478034E-2,-9.781541824E-1,9.857200862E-1
7.312843489E0,-2.323621511E-2,-3.529515862E-2,-4.095134735E-1,4.116879339E-1
7.317819478E0,1.525465846E-1,8.907224983E-4,8.522682190E-1,8.658131270E-1
7.322795468E0,2.047892213E-1,-1.871608570E-2,1.856492043E0,1.867846787E0
7.327771457E0,1.701472998E-1,4.662862048E-3,1.332894325E0,1.343718396E0
7.332747447E0,6.276476383E-2,-3.597322851E-3,3.484516144E-1,3.540775111E-1
7.337723437E0,2.662914991E-2,-2.590710297E-3,-6.229629517E-1,6.235372183E-1
7.342699426E0,7.563829422E-4,1.013916731E-2,-1.253916740E0,1.253957961E0
7.347675416E0,8.491277695E-4,1.663167030E-2,-1.139006615E0,1.139128352E0
7.352651405E0,7.039928436E-2,2.184759360E-3,-5.219554901E-1,5.266862122E-1
7.357627395E0,1.376495361E-1,2.739892900E-2,1.751832962E-1,2.244711192E-1
7.362603385E0,1.062145233E-1,5.755000934E-2,5.150003433E-1,5.289790943E-1
7.367579374E0,1.703572273E-2,4.918522015E-2,3.534793854E-1,3.572913064E-1
7.372555364E0,-1.224293113E-1,5.031194538E-2,-5.333423615E-2,1.427051816E-1
7.377531353E0,-2.031653523E-1,4.244594369E-3,-2.807369232E-1,3.465651411E-1
7.382507343E0,-1.956275702E-1,-1.260075066E-2,-2.306261063E-1,3.026835410E-1
7.387483332E0,-1.360211372E-1,-1.960377954E-2,9.016990662E-3,1.377220537E-1
7.392459322E0,-8.471322060E-2,-4.070753604E-2,2.227888107E-1,2.418021659E-1
7.397435312E0,-6.042331457E-2,-5.235971510E-2,3.111677170E-1,3.212753722E-1
7.402411301E0,-5.905097723E-2,-5.484856293E-2,2.752685547E-1,2.868242667E-1
7.407387343E0,-1.053808928E-1,-6.243247166E-2,1.542119980E-1,1.969372651E-1
7.412363385E0,-1.329993606E-1,-8.435663581E-2,2.472019196E-2,1.594238370E-1
7.417339426E0,-1.611590981E-1,-9.179701656E-2,-1.341056824E-2,1.859537322E-1
7.422315468E0,-1.324108243E-1,-8.952010423E-2,2.477741241E-2,1.617417560E-1
7.427291510E0,-9.450781345E-2,-6.815321743E-2,5.673408508E-3,1.166566561E-1
7.432267551E0,-4.737246037E-2,-5.155870691E-2,1.996517181E-2,7.280836727E-2
7.437243593E0,-5.224227905E-3,-2.069872245E-2,4.837226868E-2,5.287349095E-2
7.442219635E0,1.768147945E-2,-4.440220073E-3,5.279254913E-2,5.585162051E-2
7.447195676E0,7.853841782E-2,1.137425005E-2,2.867126465E-2,8.437830322E-2
7.452171718E0,9.135133028E-2,1.264897361E-2,4.755020142E-3,9.234539671E-2
7.457147760E0,1.231544614E-1,4.214290529E-3,1.901721954E-2,1.246853489E-1
7.462123801E0,1.121097803E-1,-8.906871080E-3,3.789806366E-2,1.186768656E-1
7.467099843E0,1.296994090E-1,-1.722171158E-2,1.863002777E-2,1.321574893E-1
7.472075885E0,1.044060588E-1,-2.061197162E-2,4.270553589E-3,1.065068829E-1
7.477051926E0,7.942652702E-2,-3.346294165E-2,4.268646240E-3,8.629347020E-2
7.482027968E0,8.330082893E-2,-3.210746869E-2,4.224205017E-2,9.876390256E-2
7.487004010E0,5.865246058E-2,-1.691692322E-2,2.766418457E-2,6.701940414E-2
7.491980051E0,3.864997625E-2,1.669043675E-2,-1.054821014E-1,1.135731705E-1
7.496956093E0,8.906424046E-3,2.143615112E-2,-2.707252502E-1,2.717185936E-1
7.501932135E0,-1.155376434E-2,1.712442935E-2,-2.968454361E-1,2.975633520E-1
7.506908176E0,1.543694735E-2,1.817471161E-2,-1.992683411E-1,2.006900377E-1
7.511884218E0,1.391786337E-2,3.356845677E-2,-3.604125977E-2,5.118125258E-2
7.516860260E0,4.141688347E-2,6.742507219E-2,7.829761505E-2,1.113194283E-1
7.521836301E0,5.020678043E-2,8.149588108E-2,1.109161377E-1,1.465083241E-1
7.526812343E0,5.938565731E-2,9.498279542E-2,5.774974823E-2,1.260294455E-1
7.531788385E0,4.015100002E-2,7.021097094E-2,-2.347755432E-2,8.421923058E-2
7.536764426E0,2.102476358E-2,4.579148442E-2,-9.053230286E-3,5.119435230E-2
7.541740468E0,3.054875135E-2,2.172551677E-2,3.374290466E-2,5.043617653E-2
7.546716510E0,1.625061035E-2,7.301557809E-3,4.294300079E-2,4.649189607E-2
7.551692499E0,1.167124510E-2,7.136356086E-3,2.356624603E-2,2.724910076E-2
7.556668489E0,2.137482166E-2,6.651680917E-3,-9.896278381E-3,2.447578775E-2
7.561644478E0,-2.293527126E-3,2.985800803E-2,-3.357887268E-2,4.499223934E-2
7.566620468E0,-2.125144005E-3,4.822110757E-2,-3.331184387E-2,5.864699817E-2
7.571596457E0,-2.090114355E-2,6.647430360E-2,-4.561424255E-3,6.983192273E-2
7.576572447E0,-3.946912289E-2,7.533954084E-2,2.394676208E-2,8.835895817E-2
7.581548437E0,-3.888809681E-2,6.994093955E-2,5.221748352E-2,9.555461623E-2
7.586524426E0,-4.316300154E-2,7.419130206E-2,7.551383972E-2,1.143229373E-1
7.591500416E0,-4.740226269E-2,7.350355387E-2,9.861469269E-2,1.318127632E-1
7.596476405E0,-6.590265036E-2,7.737267017E-2,5.029964447E-2,1.134008097E-1
7.601452395E0,-6.530612707E-2,8.116225898E-2,1.663589478E-2,1.054938648E-1
7.606428385E0,-6.481736898E-2,6.128060073E-2,-3.098392487E-2,9.442778695E-2
7.611404374E0,-5.013841391E-2,5.121997744E-2,-2.596855164E-2,7.623458737E-2
7.616380364E0,-3.547883034E-2,3.180173412E-2,-6.757736206E-3,4.812239285E-2
7.621356353E0,-3.033536673E-2,2.204643562E-2,-1.620578766E-2,4.085226250E-2
7.626332343E0,-1.563495398E-2,7.572509348E-3,-3.508090973E-2,3.914671009E-2
7.631308332E0,-1.999944448E-2,-1.152519882E-2,-4.430675507E-2,4.995894847E-2
7.636284322E0,-1.467657089E-2,-2.097085491E-2,-2.497673035E-2,3.576332685E-2
7.641260312E0,4.898607731E-3,-2.079351619E-2,3.685951233E-3,2.167839730E-2
7.646236301E0,-1.837444305E-2,-3.486727923E-2,1.311111450E-2,4.153611251E-2
7.651212291E0,-2.261382341E-2,-3.457824141E-2,2.721881866E-2,4.947629612E-2
7.656188280E0,-2.232640982E-2,-4.858850315E-2,5.072593689E-2,7.370503298E-2
7.661164270E0,-2.694416046E-2,-3.393962979E-2,7.879924774E-2,8.992890357E-2
7.666140260E0,-2.212953568E-2,-3.841501474E-2,5.916118622E-2,7.392885541E-2
7.671116249E0,-2.215498686E-2,-3.330470249E-2,3.019428253E-2,5.011727595E-2
7.676092239E0,-1.748317480E-2,-4.243104532E-2,1.472473145E-3,4.591539160E-2
7.681068228E0,-1.279908419E-2,-4.193703458E-2,1.572227478E-2,4.658026781E-2
7.686044218E0,-8.102774620E-3,-5.099964887E-2,2.985000610E-2,5.964597225E-2
7.691020207E0,1.405358315E-3,-5.054936931E-2,3.910255432E-2,6.392357565E-2
7.695996197E0,-1.295965910E-2,-5.015426502E-2,2.928829193E-2,5.950804238E-2
7.700972187E0,-1.295953989E-2,-4.501395673E-2,-2.318096161E-2,5.226435645E-2
7.705948176E0,-8.159518242E-3,-2.076821402E-2,-3.722858429E-2,4.340350147E-2
7.710924166E0,1.451790333E-3,3.378294408E-3,-8.430480957E-3,9.197476689E-3
7.715900155E0,6.492078304E-3,2.738322690E-2,1.061058044E-2,3.007611367E-2
7.720876145E0,-2.600908279E-3,3.214269876E-2,2.473163605E-2,4.063953284E-2
7.725852135E0,7.376074791E-3,3.671236709E-2,3.398704529E-2,5.056998738E-2
7.730828124E0,1.737278700E-2,1.265013590E-2,7.164764404E-2,7.480123370E-2
7.735804114E0,1.789242029E-2,2.836413682E-3,8.049392700E-2,8.250731017E-2
7.740780103E0,2.336221933E-2,-2.297222614E-3,8.924961090E-2,9.228522942E-2
7.745756093E0,1.944380999E-2,-2.168504149E-2,4.093742371E-2,5.024117267E-2
7.750732082E0,1.530116796E-2,-1.721616834E-2,2.628803253E-2,3.495114945E-2
7.755708072E0,6.187558174E-3,-1.278046891E-2,7.032394409E-3,1.584553038E-2
7.760684062E0,1.118981838E-2,-3.680590540E-3,6.947517395E-3,1.367577347E-2
7.765660051E0,3.984159231E-2,5.475766957E-4,-2.629280090E-3,3.993201012E-2
7.770636041E0,3.031831980E-2,-4.803843796E-3,-4.537010193E-2,5.477886070E-2
7.775612030E0,3.527414799E-2,-1.011066139E-2,-1.020126343E-1,1.084115701E-1
7.780588020E0,4.514312744E-2,-1.046633348E-2,-9.171962738E-2,1.027615499E-1
7.785564010E0,1.709592342E-2,-2.031600848E-2,-3.878784180E-2,4.700539830E-2
7.790539999E0,1.772201061E-2,-6.392542273E-3,1.845455170E-2,2.637242376E-2
7.795515989E0,-1.025092602E-2,2.563502640E-3,1.824569702E-2,2.108455572E-2
7.800491978E0,-9.808480740E-3,2.098926902E-2,-4.841518402E-2,5.367295177E-2
7.805467968E0,-1.442700624E-2,3.946313262E-2,-1.334896088E-1,1.399462504E-1
7.810443957E0,-3.366392851E-2,3.920044750E-2,-1.798324585E-1,1.871086537E-1
7.815419947E0,-5.512654781E-3,3.470151126E-2,-1.782827377E-1,1.817121868E-1
7.820395937E0,1.750123501E-2,4.019553959E-2,-1.055049896E-1,1.142509408E-1
7.825371926E0,4.042589664E-2,3.639554605E-2,2.838993073E-2,6.135859401E-2
7.830347916E0,7.781600952E-2,2.782326192E-2,2.561054230E-1,2.691086266E-1
7.835323905E0,7.721436024E-2,2.364766598E-2,4.818983078E-1,4.886176917E-1
7.840299895E0,2.897810936E-2,4.379164428E-3,4.399032593E-1,4.408784248E-1
7.845275885E0,-6.747329235E-2,-1.524740085E-2,-8.125209808E-2,1.067100363E-1
7.850251874E0,-1.265217066E-1,-7.161395252E-2,-8.733625412E-1,8.853803865E-1
7.855227864E0,-1.340761781E-1,-9.680566192E-2,-1.060455322E0,1.073272215E0
7.860203853E0,-1.277806163E-1,-7.745736837E-2,-7.995834351E-1,8.134255955E-1
7.865179843E0,-4.958838224E-2,-2.007612213E-2,-1.990461349E-1,2.061102185E-1
7.870155832E0,6.221836805E-2,6.791539490E-3,1.255876541E0,1.257435142E0
7.875131822E0,4.896110296E-2,5.368698388E-3,1.730014801E0,1.730715813E0
7.880107812E0,4.840892553E-2,-1.461503282E-2,1.065424919E0,1.066624246E0
7.885083801E0,7.629776001E-2,-2.682850882E-2,8.347797394E-2,1.162311886E-1
7.890059791E0,1.432297826E-1,4.632396623E-3,-8.571414948E-1,8.690384179E-1
7.895035780E0,1.309917569E-1,-1.836763509E-2,-1.234509468E0,1.241575546E0
7.900011770E0,1.593126059E-1,-3.823380917E-2,-8.539190292E-1,8.694941282E-1
7.904987760E0,1.563140750E-1,-2.754253149E-2,-2.439966202E-1,2.910790816E-1
7.909963749E0,1.120929718E-1,2.930663526E-3,1.850271225E-1,2.163526269E-1
