"Time (s)","Linear Acceleration x (m/s^2)","Linear Acceleration y (m/s^2)","Linear Acceleration z (m/s^2)","Absolute acceleration (m/s^2)"
2.005069300E-2,2.222943306E-2,1.137828827E-2,-1.171016693E-2,2.758153635E-2
2.502637000E-2,1.111739874E-1,3.552162647E-2,2.132320404E-2,1.186428272E-1
3.000204700E-2,2.595210075E-1,8.319133520E-2,-5.888462067E-2,2.788177723E-1
3.497767200E-2,3.379005194E-1,1.423224211E-1,-1.583290100E-2,3.669919799E-1
3.995329700E-2,6.618540287E-1,4.771240354E-1,8.306598663E-2,8.201207585E-1
4.492892200E-2,8.254961967E-1,6.260331273E-1,2.724123001E-1,1.071246894E0
4.990454700E-2,-3.212094307E-2,-7.659298182E-2,3.758916855E-1,3.849581783E-1
5.488017200E-2,-4.079257250E-1,-2.968589365E-1,3.019704819E-1,5.879751672E-1
5.985579700E-2,-5.219519138E-1,-3.385111690E-1,-2.055616379E-1,6.551940162E-1
6.483142200E-2,-6.994974613E-1,-3.842881918E-1,-5.028982162E-1,9.433348974E-1
6.980704700E-2,-8.453643322E-1,-3.993656635E-1,-5.235919952E-1,1.071579379E0
7.478267200E-2,-8.787072897E-1,-3.814927042E-1,-2.489032745E-1,9.897555377E-1
7.975829700E-2,-7.852820754E-1,-3.632518351E-1,9.864711761E-2,8.708335590E-1
8.473392200E-2,-6.033094525E-1,-2.497707009E-1,2.625436783E-1,7.037733169E-1
8.970954700E-2,-4.145184755E-1,-1.617975235E-1,1.071538925E-1,4.576963643E-1
9.468517200E-2,-2.490200996E-1,-1.007586718E-1,-2.735109329E-1,3.833686873E-1
9.966079700E-2,-1.327902079E-1,-4.196619987E-2,-3.448266983E-1,3.718868821E-1
1.046364220E-1,-9.580683708E-2,-3.112709522E-2,-3.241348267E-2,1.058228706E-1
1.096120470E-1,-5.288052559E-2,-4.889956117E-2,3.508996964E-1,3.582151783E-1
1.145876720E-1,-1.346397400E-2,-9.016388655E-2,6.760530472E-1,6.821719194E-1
1.195632970E-1,-1.786291599E-2,-1.129377782E-1,7.550506592E-1,7.636592980E-1
1.245389220E-1,5.079686642E-2,-8.554464579E-2,5.483026505E-1,5.572557802E-1
1.295145470E-1,5.232119560E-2,-1.197132468E-1,3.145465851E-1,3.405999459E-1
1.344901720E-1,-6.067633629E-3,-1.991287470E-1,6.315326691E-2,2.089914093E-1
1.394657970E-1,-4.413866997E-2,-2.440094948E-1,-2.658843994E-1,3.635703090E-1
1.444414220E-1,-7.233464718E-2,-2.967664003E-1,-5.277109146E-1,6.097388022E-1
1.494170470E-1,-7.241559029E-2,-3.289150596E-1,-5.315399170E-1,6.292565593E-1
1.543926720E-1,-5.866873264E-2,-3.178509474E-1,-3.556604385E-1,4.805887977E-1
1.593682970E-1,1.103103161E-2,-3.067636490E-1,-6.587791443E-2,3.139514606E-1
1.643439220E-1,5.675768852E-2,-3.053753972E-1,1.679420471E-1,3.531006933E-1
1.693195470E-1,9.342789650E-2,-2.904318869E-1,2.459802628E-1,3.919001690E-1
1.742951720E-1,9.797763824E-2,-2.855308056E-1,1.963415146E-1,3.601075518E-1
1.792707970E-1,5.191946030E-2,-3.087979257E-1,8.319950104E-2,3.239968306E-1
1.842464220E-1,-3.013300896E-2,-3.684503436E-1,-1.733207703E-2,3.700865505E-1
1.892220470E-1,-7.323610783E-2,-4.074817896E-1,-1.010713577E-1,4.261693979E-1
1.941977240E-1,-1.531560421E-1,-4.404576421E-1,-1.173353195E-1,4.808609829E-1
1.991734010E-1,-1.897788048E-1,-4.537252784E-1,-8.656311035E-2,4.993754049E-1
2.041490780E-1,-1.932930946E-1,-4.293163121E-1,-2.393913269E-2,4.714316476E-1
2.091247550E-1,-1.876667738E-1,-3.869491816E-1,4.179096222E-2,4.320821353E-1
2.141004320E-1,-1.683368683E-1,-2.944434285E-1,1.106281281E-1,3.567531591E-1
2.190761090E-1,-1.541457176E-1,-2.090699971E-1,1.545152664E-1,3.022352287E-1
2.240517860E-1,-1.167349815E-1,-1.306270361E-1,2.114763260E-1,2.746137559E-1
2.290274640E-1,-1.033816338E-1,-7.764124870E-2,2.765941620E-1,3.053199243E-1
2.340031410E-1,-1.184632778E-1,-5.912345648E-2,2.701940536E-1,3.008886138E-1
2.389788180E-1,-1.383056641E-1,-7.893879712E-2,2.032279968E-1,2.581887083E-1
2.439544950E-1,-1.724480391E-1,-1.317104846E-1,1.659936905E-1,2.732030073E-1
2.489301720E-1,-1.878515482E-1,-2.121098936E-1,1.484632492E-1,3.198752061E-1
2.539058490E-1,-1.987302303E-1,-2.821595669E-1,1.361131668E-1,3.709912665E-1
2.588815260E-1,-2.003901005E-1,-3.467508852E-1,1.053485870E-1,4.141143484E-1
2.638572030E-1,-2.118415833E-1,-3.824517429E-1,4.242134094E-2,4.392559188E-1
2.688328800E-1,-2.140194178E-1,-4.179483950E-1,-5.149841309E-3,4.695867257E-1
2.738085570E-1,-1.882565022E-1,-4.013717473E-1,-4.240131378E-2,4.453511665E-1
2.787842340E-1,-1.301497221E-1,-3.616961837E-1,-6.017971039E-2,3.890818384E-1
2.837599110E-1,-8.235609531E-2,-2.898435295E-1,-6.827926636E-2,3.089560749E-1
2.887355890E-1,-3.975379467E-2,-2.050909996E-1,-5.749797821E-2,2.166764865E-1
2.937112660E-1,1.674890518E-2,-1.262854934E-1,-9.364128113E-3,1.277350326E-1
2.986869430E-1,7.758986950E-2,-6.275475025E-2,7.079887390E-2,1.223553312E-1
3.036626200E-1,1.380776167E-1,4.413023591E-3,1.260061264E-1,1.869824775E-1
3.086382970E-1,1.462117434E-1,4.209105670E-2,1.379041672E-1,2.053462692E-1
3.136139740E-1,1.683380604E-1,7.872591913E-2,1.449508667E-1,2.356824700E-1
3.185896510E-1,1.756732464E-1,9.543909132E-2,1.661109924E-1,2.599280121E-1
3.235653280E-1,1.544718742E-1,9.233863652E-2,1.823072433E-1,2.561716509E-1
3.285410050E-1,1.335039139E-1,6.499852240E-2,1.417684555E-1,2.052958789E-1
3.335166820E-1,9.860670567E-2,9.335726500E-3,8.777427673E-2,1.323433483E-1
3.384923590E-1,6.432521343E-2,-3.407955170E-3,2.518939972E-2,6.916540392E-2
3.434680360E-1,3.073084354E-2,-3.963603079E-2,-2.232170105E-2,5.489679426E-2
3.484437140E-1,-1.149034500E-2,-4.217413068E-2,-1.069250107E-1,1.155146884E-1
3.534193910E-1,-1.053035259E-2,-3.006243706E-2,-1.667537689E-1,1.697688366E-1
3.583950680E-1,-1.903271675E-2,2.022230625E-2,-1.974563599E-1,1.993995989E-1
3.633707450E-1,-1.808953285E-2,7.985615730E-2,-1.994419098E-1,2.155952514E-1
3.683464220E-1,-3.164350986E-2,1.676136851E-1,-2.391910553E-1,2.937822665E-1
3.733220990E-1,-2.186870575E-2,2.500702739E-1,-3.492431641E-1,4.300978607E-1
3.782977760E-1,-4.083204269E-2,3.226481378E-1,-3.539361954E-1,4.806661075E-1
3.832734530E-1,-3.120672703E-2,3.668023348E-1,-2.027416229E-1,4.202641768E-1
3.882491300E-1,-6.877779961E-3,3.968808055E-1,3.031730652E-3,3.969519732E-1
3.932248070E-1,3.721117973E-3,4.174775481E-1,1.115055084E-1,4.321282545E-1
3.982004840E-1,1.936995983E-2,4.236998856E-1,1.240091324E-1,4.418993701E-1
4.031761610E-1,3.955602646E-2,4.202862680E-1,7.018947601E-2,4.279390013E-1
4.081518390E-1,3.554952145E-2,4.026381969E-1,2.908706665E-3,4.042149758E-1
4.131275160E-1,4.548346996E-2,3.757488132E-1,-4.931354523E-2,3.816906370E-1
4.181031930E-1,4.106509686E-2,3.447056711E-1,-8.671569824E-2,3.578099414E-1
4.230788700E-1,6.046152115E-2,3.050337136E-1,-8.585929871E-2,3.226034425E-1
4.280545470E-1,6.091535091E-2,2.993480861E-1,-7.086849213E-2,3.135957586E-1
4.330302240E-1,5.684566498E-2,2.703086734E-1,-8.448696136E-2,2.888533454E-1
4.380059010E-1,7.181441784E-2,2.464724481E-1,-1.074342728E-1,2.782949896E-1
4.429815780E-1,6.784152985E-2,2.325565517E-1,-1.112222672E-1,2.665622172E-1
4.479572550E-1,6.402742863E-2,2.379054129E-1,-5.819129944E-2,2.531496088E-1
4.529329320E-1,5.105161667E-2,2.527386844E-1,-5.796432495E-3,2.579083341E-1
4.579086090E-1,1.944005489E-2,2.484412193E-1,5.546855927E-2,2.552992680E-1
4.628842860E-1,1.201021671E-2,2.582765818E-1,9.711170197E-2,2.761914565E-1
4.678599640E-1,4.712462425E-3,2.583664060E-1,1.383132935E-1,2.930972094E-1
4.728356410E-1,-2.155411243E-2,2.533862889E-1,1.696395874E-1,3.056906619E-1
4.778113180E-1,-4.764664173E-2,2.244000137E-1,1.580390930E-1,2.785712181E-1
4.827869950E-1,-5.966675282E-2,2.048760951E-1,1.561164856E-1,2.643987383E-1
4.877626720E-1,-8.155548573E-2,1.613755524E-1,1.590471268E-1,2.408097895E-1
4.927383490E-1,-9.421026707E-2,9.888079762E-2,1.667737961E-1,2.155608629E-1
4.977140260E-1,-1.069004536E-1,5.059534311E-2,1.792182922E-1,2.147249217E-1
5.026897030E-1,-9.592652321E-2,4.479902983E-2,1.678943634E-1,1.984877029E-1
5.076653800E-1,-1.516405344E-1,-2.313604951E-2,9.985637665E-2,1.830339433E-1
5.126410570E-1,-1.642544270E-1,-6.699022651E-2,5.622863770E-2,1.860883310E-1
5.176167340E-1,-1.861492395E-1,-9.152661264E-2,3.673267365E-2,2.106607451E-1
5.225924110E-1,-2.075489759E-1,-8.261556923E-2,-2.528476715E-2,2.248137655E-1
5.275680890E-1,-2.001130581E-1,-5.938063562E-2,-5.828380585E-2,2.167217062E-1
5.325437660E-1,-1.929308176E-1,-2.679288387E-2,-6.724262238E-2,2.060624402E-1
5.375194430E-1,-1.671725512E-1,8.112192154E-4,-4.939079285E-3,1.672474647E-1
5.424951200E-1,-1.324944496E-1,3.271463513E-2,5.208206177E-2,1.460738433E-1
5.474707970E-1,-9.830737114E-2,5.485558510E-2,6.590080261E-2,1.304468866E-1
5.524464740E-1,-8.322072029E-2,6.258276105E-2,4.161930084E-2,1.121358839E-1
5.574221510E-1,-4.889273643E-2,7.035931945E-2,8.020401001E-3,8.605382235E-2
5.623978280E-1,-4.304456711E-2,6.879171729E-2,-1.582717896E-2,8.267789740E-2
5.673735050E-1,-2.260613441E-2,8.173626661E-2,-2.528285980E-2,8.849337598E-2
5.723491820E-1,-2.608072758E-2,9.947216511E-2,-3.466129303E-2,1.085187597E-1
5.773248590E-1,-1.539027691E-2,1.029744148E-1,-3.446006775E-2,1.096726356E-1
5.823005360E-1,-2.388370037E-2,1.350369155E-1,-2.001476288E-2,1.385856790E-1
5.872762140E-1,-8.566975594E-3,1.148073077E-1,-1.994228363E-2,1.168409417E-1
5.922518910E-1,1.126813889E-2,1.138842404E-1,-5.784511566E-2,1.282288913E-1
5.972275680E-1,-2.298831940E-3,9.904086590E-2,-9.544086456E-2,1.375621182E-1
6.022032450E-1,-3.944170475E-2,8.458513021E-2,-9.950447083E-2,1.364237224E-1
6.071789220E-1,-6.187903881E-2,6.586551666E-2,-8.932590485E-2,1.270684816E-1
6.121545990E-1,-5.073940754E-2,5.236929655E-2,-5.076885223E-2,8.885103857E-2
6.171302760E-1,-3.969597816E-2,2.960270643E-2,-1.253604889E-2,5.108075403E-2
6.221059530E-1,-6.673574448E-2,7.140040398E-3,2.062606812E-2,7.021448891E-2
6.270816300E-1,-5.576980114E-2,-1.987212896E-2,2.504539490E-2,6.428408850E-2
6.320573070E-1,-2.130746841E-2,-6.084766984E-2,1.045131683E-2,6.531215169E-2
6.370329840E-1,1.266312599E-2,-1.061792076E-1,-8.747100830E-3,1.072888189E-1
6.420086610E-1,2.250313759E-2,-1.511209756E-1,-2.302455902E-2,1.545123645E-1
6.469843390E-1,2.756285667E-2,-1.814367920E-1,7.991790771E-4,1.835201876E-1
6.519600160E-1,6.576931477E-2,-2.068027109E-1,2.443313599E-2,2.183802696E-1
6.569356930E-1,7.046973705E-2,-2.178652883E-1,3.362369537E-2,2.314342683E-1
6.619113700E-1,6.558656693E-2,-2.147556841E-1,1.239776611E-5,2.245475490E-1
6.668870470E-1,6.533956528E-2,-2.306659669E-1,4.687309265E-3,2.397874432E-1
6.718627240E-1,6.024587154E-2,-2.275068015E-1,9.337425232E-3,2.355336436E-1
6.768384010E-1,3.140461445E-2,-2.148889005E-1,-2.908706665E-4,2.171717615E-1
6.818140780E-1,2.659642696E-2,-1.928731352E-1,4.400253296E-3,1.947479870E-1
6.867897550E-1,1.238298416E-2,-1.710408330E-1,-4.501342773E-4,1.714890885E-1
6.917654320E-1,1.728248596E-2,-1.589386761E-1,8.987426758E-3,1.601279517E-1
6.967411090E-1,1.254224777E-2,-1.279945076E-1,1.361179352E-2,1.293258786E-1
7.017167860E-1,2.990961075E-3,-1.305989325E-1,3.965377808E-3,1.306933481E-1
7.066924640E-1,-1.122879982E-2,-1.284843385E-1,-1.509571075E-2,1.298545019E-1
7.116681410E-1,-1.688361168E-3,-1.074505746E-1,-2.923583984E-2,1.113697036E-1
7.166438180E-1,-2.071666718E-2,-1.149867326E-1,-3.376388550E-2,1.216187853E-1
7.216194950E-1,3.201723099E-3,-1.034661531E-1,-1.451778412E-2,1.045287613E-1
7.265951720E-1,2.217543125E-2,-8.730509877E-2,-9.677886963E-3,9.059575883E-2
7.315707970E-1,2.664470673E-2,-7.613556087E-2,4.633903503E-3,8.079626902E-2
7.365464220E-1,7.234811783E-3,-6.496867537E-2,-9.654998779E-3,6.607942405E-2
7.415220470E-1,2.597618103E-2,-5.395206809E-2,9.416580200E-3,6.061567136E-2
7.464976720E-1,2.097523212E-2,-6.218674779E-2,9.321212769E-3,6.628753254E-2
7.514732970E-1,3.016066551E-2,-3.722171485E-2,4.492759705E-3,4.811763388E-2
7.564489220E-1,4.882180691E-2,-4.107610881E-2,-5.047798157E-3,6.400231098E-2
7.614245470E-1,3.883779049E-2,-3.071002662E-2,-9.757995605E-3,5.046482125E-2
7.664001720E-1,5.273342133E-2,-2.999053895E-2,-1.443386078E-2,6.235849973E-2
7.713757970E-1,4.752326012E-2,-2.929505706E-2,-2.381896973E-2,6.069599607E-2
7.763514220E-1,3.291344643E-2,-3.806324303E-2,-1.888847351E-2,5.374830097E-2
7.813270470E-1,4.227280617E-2,-1.822818816E-2,-1.876068115E-2,4.971136834E-2
7.863026720E-1,1.836585999E-2,-2.699822187E-2,-4.395484924E-3,3.294736841E-2
7.912782970E-1,1.365613937E-2,-1.186840236E-2,9.847640991E-3,2.059915412E-2
7.962539220E-1,4.137396812E-3,1.736880839E-2,1.923561096E-2,2.624504308E-2
8.012295470E-1,-1.969718933E-2,-5.940362811E-3,1.906776428E-2,2.805078987E-2
8.062051720E-1,-4.823517799E-2,-3.385500610E-2,3.316593170E-2,6.762228079E-2
8.111807970E-1,-5.769515038E-2,-2.839989960E-2,3.292179108E-2,7.224353952E-2
8.161564220E-1,-4.823446274E-2,-4.214383662E-2,1.370716095E-2,6.550231005E-2
8.211320470E-1,-6.744611263E-2,-5.107593536E-2,-5.333900452E-3,8.477133818E-2
8.261076720E-1,-7.235443592E-2,-7.428151369E-2,-2.894973755E-2,1.076614833E-1
8.310832970E-1,-4.878067970E-2,-8.780273795E-2,-3.336906433E-2,1.058412489E-1
8.360589220E-1,-5.848824978E-2,-1.201089323E-1,-6.151390076E-2,1.470747802E-1
8.410345470E-1,-7.281064987E-2,-1.283582747E-1,-7.993507385E-2,1.678298348E-1
8.460101720E-1,-5.387544632E-2,-1.317964047E-1,-5.070495605E-2,1.511418161E-1
8.509857970E-1,-2.575194836E-2,-1.305206418E-1,2.042770386E-3,1.330525223E-1
8.559614220E-1,-2.645504475E-2,-1.246154234E-1,7.336044312E-2,1.470055365E-1
8.609370470E-1,-3.664827347E-2,-9.517653286E-2,1.298418045E-1,1.651077301E-1
8.659126720E-1,-1.341223717E-2,-4.240612686E-2,1.526041031E-1,1.589533893E-1
8.708882970E-1,-1.405882835E-2,5.010277033E-3,1.181926727E-1,1.191312781E-1
8.758639220E-1,-2.424836159E-2,4.253448546E-2,6.982898712E-2,8.528336846E-2
8.808395470E-1,-4.394972324E-2,6.538590789E-2,1.713371277E-2,8.062542550E-2
8.858152240E-1,-4.469525814E-2,6.904074550E-2,-1.135540009E-2,8.302551265E-2
8.907909010E-1,-6.458103657E-2,6.796172261E-2,-3.009319305E-2,9.846373085E-2
8.957665780E-1,-6.065940857E-2,5.738855898E-2,-4.391384125E-2,9.434742182E-2
9.007422550E-1,-7.581555843E-2,3.745768964E-2,-2.912330627E-2,8.943849497E-2
9.057179320E-1,-6.225061417E-2,2.253763378E-2,-2.396774292E-2,7.040977632E-2
9.106936090E-1,-6.283926964E-2,1.254157722E-2,3.810119629E-2,7.455042674E-2
9.156692860E-1,-7.281887531E-2,7.332131267E-3,8.064842224E-2,1.089059997E-1
9.206449640E-1,-7.347679138E-2,1.162402332E-2,-1.483345032E-2,7.585504623E-2
9.256206410E-1,-9.353518486E-2,-2.896964550E-3,-2.234401703E-1,2.422451917E-1
9.305963180E-1,-7.089698315E-2,2.528131008E-3,-5.015325546E-1,5.065251001E-1
9.355719950E-1,-4.809224606E-2,9.307280183E-3,-4.924726486E-1,4.949028180E-1
9.405476720E-1,-1.506078243E-2,4.539546371E-2,-1.227321625E-1,1.317222798E-1
9.455233490E-1,3.760981560E-2,9.522356093E-2,2.675647736E-1,2.864837392E-1
9.504990260E-1,4.726076126E-2,1.434997171E-1,5.074148178E-1,5.294294530E-1
9.554747030E-1,5.152142048E-2,1.994324476E-1,5.839185715E-1,6.191838629E-1
9.604503800E-1,4.078567028E-2,2.061793357E-1,5.079479218E-1,5.497130893E-1
9.654260570E-1,4.382145405E-2,1.930560470E-1,3.424758911E-1,3.955764061E-1
9.704017340E-1,5.607259274E-2,1.603302807E-1,1.309490204E-1,2.144704653E-1
9.753774110E-1,7.271277905E-2,1.274731755E-1,-1.974859238E-1,2.460431848E-1
9.803530890E-1,6.511509418E-2,9.498664737E-2,-4.044294357E-1,4.205063699E-1
9.853287660E-1,8.571314812E-2,6.328999996E-2,-4.101800919E-1,4.237924912E-1
9.903044430E-1,7.305335999E-2,6.556451321E-2,-2.544612885E-1,2.727380540E-1
9.952801200E-1,8.031249046E-2,8.252650499E-2,-5.741596222E-2,1.286752224E-1
1.000255797E0,5.549848080E-2,1.138035059E-1,3.336715698E-2,1.309377199E-1
1.005231474E0,7.970380783E-2,1.212944388E-1,1.876068115E-2,1.463454852E-1
1.010207151E0,5.244231224E-2,1.385967433E-1,-2.434253693E-2,1.501726090E-1
1.015182828E0,1.177227497E-2,1.326449513E-1,-8.617115021E-2,1.586150582E-1
1.020158505E0,-2.371084690E-2,1.273691952E-1,-1.380167007E-1,1.892979816E-1
1.025134182E0,-5.425381660E-2,1.085631549E-1,-1.894350052E-1,2.249779021E-1
1.030109859E0,-8.985543251E-2,9.053364396E-2,-2.071342468E-1,2.432589888E-1
1.035085536E0,-8.773648739E-2,7.317167521E-2,-1.486549377E-1,1.874835347E-1
1.040061214E0,-9.089529514E-2,5.620989203E-2,-4.312324524E-2,1.152437457E-1
1.045036891E0,-1.086809635E-1,4.877790809E-2,7.107830048E-2,1.387189999E-1
1.050012568E0,-1.076298952E-1,6.493976712E-2,1.368856430E-1,1.858468374E-1
1.054988245E0,-1.116939783E-1,5.222046375E-2,1.594581604E-1,2.015674243E-1
1.059963922E0,-1.301245689E-1,2.511221170E-2,1.866159439E-1,2.288854236E-1
1.064939599E0,-1.246093512E-1,2.172291279E-2,1.803083420E-1,2.202509331E-1
1.069915276E0,-1.333868504E-1,-8.305311203E-4,1.693105698E-1,2.155430599E-1
1.074890953E0,-1.090053320E-1,-1.400597394E-2,1.346883774E-1,1.738369601E-1
1.079866630E0,-8.967912197E-2,-2.721896768E-2,1.098680496E-1,1.444098523E-1
1.084842307E0,-9.441280365E-2,-1.677188277E-2,8.527851105E-2,1.283257495E-1
1.089817984E0,-4.697585106E-2,-1.601120830E-2,5.615997314E-2,7.494686089E-2
1.094793661E0,-9.431362152E-3,-1.541042328E-2,2.728843689E-2,3.272751939E-2
1.099769339E0,1.835453510E-2,-5.419999361E-3,3.402709961E-3,1.943820432E-2
1.104745016E0,4.601252079E-2,-9.764403105E-3,1.294326782E-2,4.878548779E-2
1.109720693E0,6.414675713E-2,-9.471565485E-3,8.137702942E-3,6.535089297E-2
1.114696370E0,6.814277172E-2,-1.399305463E-2,1.284122467E-2,7.073994605E-2
1.119672047E0,7.236158848E-2,-9.133413434E-3,2.697467804E-2,7.776407900E-2
1.124647724E0,8.144736290E-2,-9.062767029E-3,-6.512641907E-3,8.220840087E-2
1.129623401E0,9.050858021E-2,-1.848968863E-2,-2.073287964E-2,9.467588909E-2
1.134599078E0,8.055162430E-2,-2.314072847E-2,-3.483963013E-2,9.076264275E-2
1.139574755E0,9.916853905E-2,-3.250150383E-2,-4.882907867E-2,1.152172982E-1
1.144550432E0,6.544935703E-2,-4.173918068E-2,-4.371547699E-2,8.908883470E-2
1.149526109E0,7.479870319E-2,-4.140286148E-2,-1.490783691E-2,8.678298531E-2
1.154501786E0,6.037783623E-2,-3.151503205E-2,4.155158997E-3,6.823449054E-2
1.159477464E0,2.233457565E-2,-4.065236449E-2,1.356124878E-2,4.832551580E-2
1.164453141E0,1.320302486E-2,-3.542302549E-2,-1.036453247E-2,3.919864964E-2
1.169428818E0,-6.520748138E-4,-4.918007553E-2,3.903388977E-3,4.933904616E-2
1.174404495E0,-9.644508362E-3,-3.437657654E-2,8.556365967E-3,3.671480566E-2
1.179380172E0,-4.212856293E-3,-4.344508052E-2,-1.087188721E-3,4.366239983E-2
1.184355849E0,-1.782166958E-2,-3.798161447E-2,-5.907058716E-3,4.236871826E-2
1.189331526E0,-2.651739120E-2,-4.200951755E-2,8.299827576E-3,5.036723875E-2
1.194307203E0,-1.150047779E-2,-6.019817293E-2,8.153915405E-3,6.182691444E-2
1.199282880E0,-1.580619812E-2,-5.929857492E-2,3.286361694E-3,6.145695290E-2
1.204258557E0,-1.578950882E-2,-6.330247223E-2,-2.047634125E-2,6.837976404E-2
1.209234234E0,-2.086997032E-3,-3.430782259E-2,-1.246910095E-1,1.293415251E-1
1.214209911E0,-1.719176769E-2,-4.825231433E-2,-1.615362167E-1,1.694632468E-1
1.219185589E0,-3.217053413E-2,-1.045099795E-1,-1.458482742E-1,1.822882283E-1
1.224161266E0,-4.227709770E-2,-1.170444489E-1,-6.382465363E-2,1.398582940E-1
1.229136943E0,-2.370607853E-2,-1.102757975E-1,2.224731445E-2,1.149681377E-1
1.234112620E0,2.820563316E-2,-8.482541144E-2,1.218242645E-1,1.511028113E-1
1.239088297E0,5.140101910E-2,-5.066528916E-2,1.730747223E-1,1.875203877E-1
1.244063974E0,3.651845455E-2,-3.155332804E-2,1.336765289E-1,1.421218647E-1
1.249039651E0,4.075527191E-2,-1.750887930E-2,6.611919403E-2,7.961972659E-2
1.254015328E0,4.500663280E-2,-3.686605394E-2,8.617401123E-3,5.881294527E-2
1.258991005E0,4.467880726E-2,-2.736611664E-2,-1.044654846E-2,5.342499914E-2
1.263966682E0,1.596760750E-2,-4.629504681E-2,-5.785846710E-2,7.580104263E-2
1.268942359E0,-1.250541210E-2,-6.015799940E-2,-1.048793793E-1,1.215526817E-1
1.273918036E0,-3.139913082E-2,-6.915077567E-2,-1.135025024E-1,1.365670284E-1
1.278893714E0,-5.498623848E-2,-5.912582576E-2,-7.930278778E-2,1.131736800E-1
1.283869391E0,-5.933165550E-2,-4.918439686E-2,-2.165222168E-2,8.005103961E-2
1.288845068E0,-5.878996849E-2,-2.982881665E-2,2.600860596E-2,7.086936067E-2
1.293820745E0,-6.279885769E-2,-5.924955010E-3,5.900382996E-2,8.637275941E-2
1.298796422E0,-7.611787319E-2,-1.367866993E-3,7.746315002E-2,1.086109630E-1
1.303772099E0,-8.922338486E-2,1.734553277E-2,9.100914001E-2,1.286248167E-1
1.308747776E0,-7.863330841E-2,1.681879163E-2,7.597255707E-2,1.106250350E-1
1.313723453E0,-6.823384762E-2,2.099367976E-2,6.582355499E-2,9.710475242E-2
1.318699130E0,-8.176708221E-2,1.564283669E-2,5.102252960E-2,9.764144919E-2
1.323674807E0,-9.529125690E-2,1.503995061E-2,4.585552216E-2,1.068145714E-1
1.328650484E0,-9.445714951E-2,9.693533182E-3,5.972576141E-2,1.121752390E-1
1.333626161E0,-6.524145603E-2,2.333442867E-2,4.500198364E-2,8.262034664E-2
1.338601839E0,-5.056583881E-2,1.786760986E-2,2.565956116E-2,5.945223811E-2
1.343577516E0,-3.606271744E-2,1.238901913E-2,1.736640930E-3,3.817097465E-2
1.348553193E0,-2.178275585E-2,1.650430262E-2,6.515502930E-3,2.809505714E-2
1.353528870E0,1.928806305E-3,4.906411469E-2,-3.623676300E-2,6.102549170E-2
1.358504547E0,1.140463352E-2,2.456326783E-2,-8.341026306E-2,8.769658931E-2
1.363480224E0,-1.212954521E-2,-9.031638503E-3,-1.064901352E-1,1.075585666E-1
1.368455901E0,-3.516161442E-2,-8.742600679E-3,-7.718944550E-2,8.527005741E-2
1.373431578E0,3.727316856E-3,-3.683851659E-2,-3.863906860E-2,5.351585577E-2
1.378407255E0,-7.015466690E-4,-1.246072352E-2,-5.126953125E-3,1.349249594E-2
1.383382932E0,4.201292992E-3,-7.445842028E-3,4.390716553E-3,9.610921816E-3
1.388358609E0,2.320635319E-2,-7.272437215E-3,4.345893860E-3,2.470445233E-2
1.393334286E0,1.356208324E-2,1.189354062E-2,4.301071167E-3,1.854415335E-2
1.398309964E0,1.359748840E-2,1.190578938E-2,-5.035400391E-4,1.808018429E-2
1.403285641E0,8.986592293E-3,1.191793382E-2,-5.279541016E-3,1.583254689E-2
1.408261318E0,-9.883880615E-3,1.668454707E-2,-5.130767822E-4,1.939918696E-2
1.413236995E0,-3.083944321E-4,1.654841006E-2,-5.092620850E-4,1.655911623E-2
1.418212672E0,9.083747864E-3,3.531107306E-2,1.375579834E-2,3.896932568E-2
1.423188349E0,8.848071098E-3,2.068397403E-2,-1.482868195E-2,2.694447906E-2
1.428164026E0,3.712177277E-3,1.572695374E-2,-2.891254425E-2,3.312178361E-2
1.433139703E0,1.301825047E-2,6.216317415E-3,-3.340435028E-2,3.638637197E-2
1.438115380E0,8.154869080E-3,2.062982321E-2,-4.737663269E-2,5.231287433E-2
1.443091057E0,1.288151741E-2,6.426140666E-3,-3.274631500E-2,3.577079704E-2
1.448066734E0,2.241718769E-2,-7.647037506E-3,-1.350212097E-2,2.726379939E-2
1.453042411E0,3.197693825E-2,6.881996989E-3,8.211135864E-4,3.271942374E-2
1.458018089E0,4.150819778E-2,1.649026573E-2,1.502037048E-2,4.712187259E-2
1.462993766E0,3.191483021E-2,7.075652480E-3,3.385448456E-2,4.706110251E-2
1.467969443E0,2.725112438E-2,1.663720608E-2,2.403068542E-2,3.996115924E-2
1.472945120E0,4.162025452E-2,2.274185419E-3,2.378749847E-2,4.799231802E-2
1.477920797E0,4.162538052E-2,-7.329106331E-3,1.405239105E-2,4.454051860E-2
1.482896474E0,3.207981586E-2,-7.445588708E-3,-3.414154053E-4,3.293429734E-2
1.487872151E0,3.691172600E-2,-2.818688750E-3,-9.872436523E-3,3.831299421E-2
1.492847828E0,8.515119553E-3,-1.247583330E-2,-1.933097839E-2,2.453243574E-2
1.497823505E0,8.846044540E-3,-3.154951334E-2,-2.396202087E-2,4.059313662E-2
1.502799130E0,-5.071282387E-3,-1.717355847E-2,-1.430988312E-2,2.292208041E-2
1.507774755E0,1.436805725E-2,1.132202148E-2,-1.423549652E-2,2.317927093E-2
1.512750380E0,1.449918747E-2,1.583154500E-2,-2.364063263E-2,3.193342708E-2
1.517726005E0,-3.295695782E-2,-3.663340211E-2,-1.396179199E-2,5.121619719E-2
1.522701630E0,-1.833951473E-2,-4.106765985E-2,5.137443542E-3,4.526901603E-2
1.527677255E0,-2.753520012E-2,-3.121946752E-2,-4.420280457E-3,4.186145336E-2
1.532652880E0,-2.710735798E-2,-2.619577944E-2,-9.155273438E-3,3.879235426E-2
1.537628505E0,1.705527306E-3,-1.651665568E-2,-4.341125488E-3,1.716257874E-2
1.542604130E0,-4.094910622E-2,-1.161551476E-2,-9.064674377E-3,4.351916594E-2
1.547579755E0,-3.576457500E-2,-2.000659704E-3,-9.000778198E-3,3.693401512E-2
1.552555380E0,-1.637661457E-2,-6.717488170E-3,-8.936882019E-3,1.982891859E-2
1.557531005E0,-2.089262009E-2,2.901688218E-3,-8.875846863E-3,2.288453683E-2
1.562506630E0,-2.532100677E-2,-1.849949360E-3,-8.819580078E-3,2.687676858E-2
1.567482255E0,-3.445982933E-2,-1.768350601E-3,5.480766296E-3,3.493774035E-2
1.572457880E0,-1.503264904E-2,-6.378695369E-3,6.666183472E-4,1.634358198E-2
1.577433505E0,-1.481258869E-2,-1.089942455E-2,6.456375122E-4,1.840182293E-2
1.582409130E0,-2.403891087E-2,-5.942746997E-3,6.208419800E-4,2.477036379E-2
1.587384755E0,-1.894164085E-2,-9.822249413E-4,5.342483521E-3,1.970514284E-2
1.592360380E0,-4.392266273E-3,-1.034763455E-2,5.277633667E-3,1.241849270E-2
1.597336005E0,-4.214513302E-2,-1.484136283E-2,9.954452515E-3,4.577738976E-2
1.602311630E0,-1.320564747E-2,-1.460638642E-2,5.108833313E-3,2.034295522E-2
1.607287255E0,-8.248686790E-3,-9.630918503E-3,1.454925537E-2,1.929964396E-2
1.612262880E0,6.060481071E-3,-2.853573859E-2,4.931449890E-3,2.958609480E-2
1.617238505E0,1.361250877E-3,-2.835229039E-2,9.628295898E-3,2.997347922E-2
1.622214130E0,-3.168737888E-2,-3.771857917E-2,-2.846145630E-2,5.689319546E-2
1.627189755E0,-1.217603683E-2,-3.750981390E-2,-5.199432373E-2,6.525834592E-2
1.632165380E0,-2.376675606E-3,-3.724554181E-2,-6.582927704E-2,7.567280018E-2
1.637141005E0,-1.170289516E-2,-3.688712418E-2,-6.055068970E-2,7.186100270E-2
1.642116630E0,-3.049957752E-2,-2.708587050E-2,-1.257228851E-2,4.268408425E-2
1.647092255E0,-2.549839020E-2,-7.926523685E-3,5.876159668E-2,6.454396118E-2
1.652067932E0,-2.528727055E-2,6.222292781E-3,8.676624298E-2,9.058997682E-2
1.657043609E0,-1.078248024E-2,2.965383232E-2,7.654666901E-2,8.279495267E-2
1.662019286E0,-1.059281826E-2,4.334191978E-2,7.115554810E-2,8.398715279E-2
1.666994964E0,-1.505219936E-2,4.272763431E-2,4.205322266E-2,6.181175435E-2
1.671970641E0,-2.427530289E-2,4.217568040E-2,3.219223022E-2,5.834739098E-2
1.676946318E0,-3.868341446E-4,1.783461869E-2,8.193969727E-3,1.963070055E-2
1.681921995E0,-1.979231834E-2,-6.303593516E-3,-3.455638885E-2,4.031891823E-2
1.686897672E0,-1.201629639E-3,-3.024064004E-2,-9.117794037E-2,9.606954270E-2
1.691873349E0,-6.609559059E-3,-3.958514333E-2,-9.508514404E-2,1.032078217E-1
1.696849026E0,-2.269268036E-3,-4.400691390E-2,-5.624961853E-2,7.145472436E-2
1.701824703E0,2.123355865E-2,-4.828947783E-2,5.977630615E-3,5.308926209E-2
1.706800380E0,1.615309715E-2,-3.359957039E-2,5.342960358E-2,6.515041225E-2
1.711776057E0,-2.238035202E-2,-3.802607954E-2,-4.668712616E-2,6.423823340E-2
1.716751734E0,-3.736209869E-2,-2.786308527E-2,-2.741260529E-1,2.780600129E-1
1.721727411E0,-3.797578812E-2,-4.539383948E-2,-4.949426651E-1,4.984686579E-1
1.726703089E0,-1.438224316E-2,-2.845929563E-2,-3.436145782E-1,3.450909428E-1
1.731678766E0,1.917648315E-2,-1.811549067E-3,6.753540039E-2,7.022855204E-2
1.736654443E0,1.497900486E-2,2.869795263E-2,3.707456589E-1,3.721562664E-1
1.741630120E0,2.970850468E-2,6.237226725E-2,5.527601242E-1,5.570607237E-1
1.746605797E0,2.480971813E-2,7.549275458E-2,5.481567383E-1,5.538867103E-1
1.751581474E0,2.403461933E-2,7.343879342E-2,3.727436066E-1,3.806687741E-1
1.756557151E0,3.704905510E-2,2.810761333E-2,2.131052017E-1,2.181203737E-1
1.761532828E0,3.535199165E-2,6.173148751E-3,6.910324097E-2,7.786609655E-2
1.766508505E0,5.710411072E-2,-2.094192803E-2,-1.971073151E-1,2.062783010E-1
1.771484182E0,4.977452755E-2,-3.363606334E-2,-4.373073578E-1,4.414143332E-1
1.776459859E0,5.180025101E-2,-4.561470449E-2,-4.428167343E-1,4.481636168E-1
1.781435536E0,7.311117649E-2,-2.348519862E-2,-2.916336060E-1,3.015741348E-1
1.786411214E0,7.606720924E-2,-5.712971091E-3,-7.059574127E-2,1.039356390E-1
1.791386891E0,9.441959858E-2,1.687052846E-2,6.772994995E-2,1.174181479E-1
1.796362568E0,7.575535774E-2,2.982607484E-2,9.555149078E-2,1.255330887E-1
1.801338245E0,5.816650391E-2,3.333613276E-2,6.604576111E-2,9.410994891E-2
1.806313922E0,3.643643856E-2,3.252887726E-2,-1.076412201E-2,5.001607975E-2
1.811289599E0,-3.952860832E-3,2.279417217E-2,-8.221817017E-2,8.541092962E-2
1.816265276E0,-6.325435638E-2,9.051233530E-3,-1.578102112E-1,1.702559872E-1
1.821240953E0,-8.928298950E-2,5.533680320E-3,-1.947460175E-1,2.143083880E-1
1.826216630E0,-9.191393852E-2,-1.639209688E-2,-1.885843277E-1,2.104303248E-1
1.831192307E0,-1.141271591E-1,-1.405304670E-2,-1.016855240E-1,1.535006266E-1
1.836167984E0,-1.129217148E-1,7.299438119E-3,-1.205444336E-3,1.131638130E-1
1.841143661E0,-1.026884317E-1,4.623129964E-3,8.424949646E-2,1.329069787E-1
1.846119339E0,-1.070393324E-1,1.589582860E-2,1.310415268E-1,1.699469852E-1
1.851095016E0,-1.115062237E-1,-1.678049564E-3,1.584749222E-1,1.937801711E-1
1.856070693E0,-1.444780827E-1,-3.159195185E-4,1.666965485E-1,2.205940966E-1
1.861046370E0,-1.392409801E-1,-4.008397460E-3,1.653661728E-1,2.162176887E-1
1.866022047E0,-1.389521360E-1,-2.210810781E-2,1.450767517E-1,2.020983138E-1
1.870997724E0,-1.055299044E-1,-3.070743382E-2,1.249713898E-1,1.664252249E-1
1.875973401E0,-1.057281494E-1,-3.464008868E-2,9.555244446E-2,1.466582659E-1
1.880949078E0,-8.708572388E-2,-2.444197237E-2,9.489154816E-2,1.310943905E-1
1.885924755E0,-2.591323853E-2,-1.923093200E-2,7.999992371E-2,8.626304231E-2
1.890900432E0,1.612067223E-3,-9.468376637E-3,9.371566772E-2,9.420655653E-2
1.895876109E0,2.911281586E-2,-1.893480122E-2,8.355426788E-2,9.048424408E-2
1.900851786E0,3.759765625E-2,-9.442836046E-3,7.820415497E-2,8.728482550E-2
1.905827464E0,5.576360226E-2,-9.623363614E-3,5.862522125E-2,8.148070343E-2
1.910803141E0,5.498909950E-2,-2.884763479E-2,4.393482208E-2,7.606744171E-2
1.915778818E0,6.392407417E-2,-2.897498012E-2,1.035022736E-2,7.094338544E-2
1.920754495E0,7.288575172E-2,-1.490092278E-2,-1.821613312E-2,7.659110790E-2
1.925730172E0,6.747603416E-2,-3.413240612E-2,-5.128860474E-2,9.137044002E-2
1.930705849E0,6.216263771E-2,-2.466140687E-2,-6.035041809E-2,9.008080528E-2
1.935681526E0,3.795182705E-2,-2.941851318E-2,-6.459712982E-2,8.048962216E-2
1.940657203E0,5.193078518E-2,-1.978802681E-2,-4.506778717E-2,7.155052687E-2
1.945632880E0,1.820600033E-2,-1.498630643E-2,-2.569007874E-2,3.487159265E-2
1.950608557E0,2.275133133E-2,-2.927586436E-2,-3.021430969E-2,4.782890153E-2
1.955584234E0,-1.233339310E-3,-1.494927704E-2,-2.045536041E-2,2.536579941E-2
1.960559911E0,-1.327991486E-3,-1.018178463E-2,-2.026939392E-2,2.272180956E-2
1.965535589E0,2.247416973E-2,8.842661977E-3,-5.859375000E-3,2.485182592E-2
1.970511266E0,1.294207573E-2,8.759707212E-3,-5.828857422E-3,1.667948960E-2
1.975486943E0,2.733302116E-2,-8.134841919E-4,-1.530742645E-2,3.133804568E-2
1.980462620E0,2.725493908E-2,-7.526129484E-4,-1.519870758E-2,3.121536229E-2
1.985438297E0,3.657090664E-2,-5.383476615E-3,-1.508045197E-2,3.992283888E-2
1.990413974E0,3.135895729E-2,-5.227252841E-3,-1.968765259E-2,3.739401074E-2
1.995389651E0,1.168894768E-2,-5.174726248E-3,-3.372001648E-2,3.606173597E-2
2.000365328E0,-3.631711006E-3,-1.952169836E-2,-9.030056000E-2,9.245797514E-2
2.005341005E0,9.359121323E-3,-1.485748589E-2,-1.796102524E-1,1.804665642E-1
2.010316682E0,-1.349329948E-3,-2.885560691E-2,-1.542387009E-1,1.569205008E-1
2.015292359E0,2.137458324E-2,-2.333979309E-2,-7.211875916E-2,7.875743884E-2
2.020268036E0,3.471934795E-2,-1.296798885E-2,9.000110626E-2,9.733345255E-2
2.025243714E0,2.936947346E-2,1.855149865E-3,1.557569504E-1,1.585125709E-1
2.030219391E0,2.901840210E-2,2.088777721E-2,1.354761124E-1,1.401147527E-1
2.035195068E0,4.281222820E-2,3.940959275E-2,6.790065765E-2,8.942316363E-2
2.040170745E0,3.264880180E-2,3.856606781E-2,2.464771271E-2,5.622095328E-2
2.045146422E0,2.752447128E-2,1.867826283E-2,5.474090576E-3,3.371112115E-2
2.050122099E0,2.739489079E-2,1.816104352E-2,-1.831817627E-2,3.762790354E-2
2.055097776E0,1.317441463E-2,3.504991531E-3,-5.142974854E-2,5.320591321E-2
2.060073453E0,-2.467000484E-2,-1.480698586E-3,-7.951736450E-2,8.326951942E-2
2.065049130E0,-2.436351776E-2,-6.430938840E-3,-1.073522568E-1,1.102698735E-1
2.070024807E0,-3.371012211E-2,-1.842930913E-3,-9.220123291E-2,9.818775930E-2
2.075000484E0,-3.817915916E-2,7.506549358E-3,-5.818939209E-2,7.000001307E-2
2.079976161E0,-3.760778904E-2,-6.958246231E-3,-7.486343384E-4,3.825341083E-2
2.084951839E0,-6.042671204E-2,1.189194620E-2,7.041740417E-2,9.354900706E-2
2.089927516E0,-6.865656376E-2,2.098569274E-2,8.874034882E-2,1.141445249E-1
2.094903193E0,-6.727063656E-2,2.990736067E-2,1.021585464E-1,1.259212348E-1
2.099878870E0,-8.019530773E-2,2.926984429E-2,9.647750854E-2,1.288251560E-1
2.104854547E0,-7.417297363E-2,3.334097564E-2,9.086322784E-2,1.219400543E-1
2.109830224E0,-7.774901390E-2,3.257842362E-2,9.480094910E-2,1.268600914E-1
2.114805901E0,-5.765497684E-2,4.596526921E-2,9.397125244E-2,1.194466350E-1
2.119781578E0,-8.056759834E-2,3.080065548E-2,5.992031097E-2,1.050250539E-1
2.124757255E0,-6.540358067E-2,3.935128450E-2,5.940914154E-2,9.672434055E-2
2.129732932E0,-6.951475143E-2,2.884261310E-2,3.517723083E-2,8.307607698E-2
2.134708609E0,-6.429827213E-2,3.260973096E-2,1.117324829E-2,7.295549212E-2
2.139684286E0,-4.503321648E-2,2.679724991E-2,2.062797546E-2,5.631692961E-2
2.144659964E0,-3.537464142E-2,1.633591950E-2,-2.698516846E-2,4.739648550E-2
2.149635641E0,-6.547808647E-3,2.041815221E-2,-8.848190308E-2,9.104296738E-2
2.154611318E0,-1.447677612E-3,1.532785594E-2,-1.400089264E-1,1.408528963E-1
2.159586995E0,1.790785789E-2,2.002690732E-2,-1.151428223E-1,1.182355188E-1
2.164562672E0,-1.090764999E-3,1.524101198E-2,-4.772377014E-2,5.011024297E-2
2.169538349E0,1.769983768E-2,1.038655639E-2,1.442909241E-2,2.508711851E-2
2.174514026E0,2.198600769E-2,-8.826524019E-3,4.758930206E-2,5.316045270E-2
2.179489703E0,2.639007568E-2,-1.373638213E-2,5.196571350E-2,5.987954299E-2
2.184465380E0,2.631735802E-2,-9.063199162E-3,2.777767181E-2,3.932358025E-2
2.189441057E0,2.650129795E-2,-9.228661656E-3,1.800727844E-2,3.334290128E-2
2.194416734E0,1.243817806E-2,-1.414124668E-2,3.570556641E-3,1.916851600E-2
2.199392411E0,1.263523102E-2,-2.376139164E-2,-1.548290253E-2,3.104791565E-2
2.204368089E0,-1.618385315E-3,-2.855893970E-2,-2.960491180E-2,4.116652779E-2
2.209343766E0,3.137230873E-3,-3.336162865E-2,-3.884696960E-2,5.130231507E-2
2.214319443E0,7.700800896E-3,-3.327944875E-2,-2.900218964E-2,4.481016678E-2
2.219295120E0,1.697361469E-2,-4.728382826E-2,-3.348922729E-2,6.037708469E-2
2.224270797E0,2.617049217E-2,-2.778446674E-2,-3.794288635E-2,5.381945631E-2
2.229246474E0,6.748557091E-3,-2.739039063E-2,-5.659961700E-2,6.323996495E-2
2.234222151E0,6.381273270E-3,-2.685213089E-2,-5.135059357E-2,5.829786481E-2
2.239197828E0,1.071572304E-2,-2.152472734E-2,-1.764869690E-2,2.982644983E-2
2.244173505E0,2.451097965E-2,-6.744742393E-3,2.052021027E-2,3.267045612E-2
2.249149182E0,-4.493951797E-3,-1.588159800E-2,5.836677551E-2,6.065559530E-2
2.254124859E0,1.892507076E-2,-1.549649239E-2,5.316829681E-2,5.852492944E-2
2.259100536E0,8.859515190E-3,-2.466885746E-2,4.327201843E-2,5.059161113E-2
2.264076214E0,1.307225227E-2,-3.861567378E-2,3.821563721E-2,5.587923557E-2
2.269051891E0,1.719856262E-2,-6.199444830E-2,1.421451569E-2,6.588743911E-2
2.274027568E0,1.654183865E-2,-6.143592298E-2,4.658699036E-3,6.379426726E-2
2.279003245E0,1.119327545E-2,-6.088204682E-2,9.422302246E-3,6.261543595E-2
2.283978922E0,5.889296532E-3,-4.624088109E-2,9.401321411E-3,4.755299929E-2
2.288954599E0,1.967716217E-2,-4.123090208E-2,-9.618759155E-3,4.668724156E-2
2.293930276E0,1.440620422E-2,-2.681078017E-2,-2.373790741E-2,3.859850906E-2
2.298905953E0,1.872611046E-2,-3.619606793E-2,-2.824878693E-2,4.958645490E-2
2.303881630E0,2.780973911E-2,-2.650912106E-2,-1.848316193E-2,4.263498990E-2
2.308857307E0,3.697001934E-2,-2.164529264E-2,-3.255939484E-2,5.380906258E-2
2.313832984E0,3.180849552E-2,-2.621661127E-2,-3.227615356E-2,5.235304368E-2
2.318808661E0,4.578626156E-2,-2.120167017E-2,-2.251148224E-2,5.525087690E-2
2.323784339E0,3.120779991E-2,-2.102820575E-2,-2.707767487E-2,4.636068042E-2
2.328760016E0,1.680076122E-2,-1.856073737E-3,-1.736736298E-2,2.423501360E-2
2.333735693E0,7.314682007E-3,-6.592318416E-3,-7.743835449E-3,1.252717935E-2
2.338711370E0,7.352232933E-3,2.911329269E-3,-1.243782043E-2,1.473874297E-2
2.343687047E0,-1.160323620E-2,7.581159472E-3,-1.234436035E-2,1.856050381E-2
2.348662724E0,-1.140809059E-2,-2.027317882E-3,-1.700019836E-2,2.057331507E-2
2.353638401E0,-1.596307755E-2,2.638623118E-3,2.125740051E-3,1.631872996E-2
2.358614078E0,-2.992582321E-2,2.568349242E-3,-2.657890320E-3,3.015320371E-2
2.363589755E0,-2.467596531E-2,-6.947159767E-3,1.157951355E-2,2.812919172E-2
2.368565432E0,-2.421832085E-2,2.559453249E-3,2.095031738E-2,3.212465819E-2
2.373541057E0,-2.851414680E-2,2.495929599E-3,3.499221802E-2,4.520775989E-2
2.378516682E0,-3.277170658E-2,7.118046284E-3,2.992439270E-2,4.494575190E-2
2.383492307E0,-4.169356823E-2,1.171384752E-2,2.964115143E-2,5.248014590E-2
2.388467932E0,-4.109406471E-2,1.151674986E-2,8.754730225E-4,4.268634600E-2
2.393443557E0,-2.630650997E-2,2.557286620E-2,8.468627930E-4,3.669769924E-2
2.398419182E0,-3.538346291E-2,1.581448317E-2,8.172988892E-4,3.876538794E-2
2.403394807E0,-3.488779068E-2,2.033171058E-2,-3.959655762E-3,4.057357844E-2
2.408370432E0,-2.975010872E-2,2.961097658E-2,5.559921265E-3,4.234137016E-2
2.413346057E0,-1.526057720E-2,2.936711907E-2,1.026248932E-2,3.465013111E-2
2.418321682E0,-1.993703842E-2,1.477742195E-2,-8.808135986E-3,2.633326717E-2
2.423297307E0,-1.507747173E-2,5.006611347E-3,-1.822090149E-2,2.417431617E-2
2.428272932E0,-1.015603542E-2,6.572902203E-5,-2.756786346E-2,2.937918433E-2
2.433248557E0,-4.259347916E-4,-9.576410055E-3,-3.684902191E-2,3.807544439E-2
2.438224182E0,-4.765272141E-3,-2.014487982E-4,-4.133415222E-2,4.160841910E-2
2.443199807E0,-4.319906235E-3,-9.898632765E-3,-4.578208923E-2,4.703875227E-2
2.448175432E0,-1.817500591E-2,-5.721598864E-4,-2.644252777E-2,3.209151729E-2
2.453151057E0,-2.251875401E-2,-8.776485920E-4,2.245903015E-3,2.264748616E-2
2.458126682E0,-2.223134041E-2,1.296253502E-2,5.445861816E-2,6.023288888E-2
2.463102307E0,-3.139340878E-2,2.189372480E-2,5.874633789E-2,7.011428896E-2
2.468077932E0,-1.668548584E-2,2.605317533E-2,6.299114227E-2,7.017875310E-2
2.473053557E0,-3.523838520E-2,2.548667789E-2,3.869628906E-2,5.821269044E-2
2.478029182E0,-2.514696121E-2,2.023363113E-2,1.935100555E-2,3.763284341E-2
2.483004807E0,-1.534569263E-2,1.518398523E-2,-4.560470581E-3,2.206448689E-2
2.487980432E0,-2.012753487E-2,6.794184446E-4,-2.824211121E-2,3.468711742E-2
2.492956057E0,-1.103353500E-2,5.289748311E-3,-6.117534637E-2,6.238704462E-2
2.497931682E0,7.380604744E-3,-1.858422160E-2,-7.008075714E-2,7.287769988E-2
2.502907307E0,1.139581203E-2,-8.968546987E-3,-5.042266846E-2,5.246660711E-2
2.507882932E0,1.389265060E-3,-4.085153341E-3,2.278327942E-3,4.879478808E-3
2.512858557E0,-8.225560188E-3,7.514357567E-4,7.349777222E-2,7.396044224E-2
2.517834234E0,-1.301050186E-2,-1.355469227E-2,6.815052032E-2,7.069297180E-2
2.522809911E0,-3.225827217E-2,-3.993034363E-3,-4.158878326E-2,5.278415804E-2
2.527785589E0,-5.650484562E-2,-3.218588233E-2,-3.023242950E-1,3.092389173E-1
2.532761266E0,-6.165766716E-2,-2.118359506E-2,-4.754276276E-1,4.798769026E-1
2.537736943E0,-1.902747154E-2,-1.414640248E-2,-1.770362854E-1,1.786169413E-1
2.542712620E0,-8.833408356E-5,6.884917617E-3,2.375364304E-1,2.376362044E-1
2.547688297E0,9.350657463E-3,3.151190281E-2,4.682168961E-1,4.693692540E-1
2.552663974E0,2.325344086E-2,4.991228878E-2,5.403308868E-1,5.431292906E-1
2.557639651E0,1.763677597E-2,6.248915195E-2,4.219751358E-1,4.269414072E-1
2.562615328E0,3.539943695E-2,3.651182353E-2,2.001981735E-1,2.065563896E-1
2.567591005E0,4.780435562E-2,8.951723576E-4,9.429836273E-2,1.057271912E-1
2.572566682E0,6.444323063E-2,-3.028480709E-2,-6.288719177E-2,9.499946528E-2
2.577542359E0,7.098424435E-2,-5.685977638E-2,-3.041696548E-1,3.174759456E-1
2.582518036E0,7.226336002E-2,-6.876808405E-2,-4.674139023E-1,4.779401622E-1
2.587493714E0,1.018705368E-1,-6.086519361E-2,-4.061155319E-1,4.230981013E-1
2.592469391E0,1.221430302E-1,-3.341308236E-2,-2.029371262E-1,2.392045799E-1
2.597445068E0,1.289209127E-1,-5.825042725E-3,-6.320953369E-3,1.292071489E-1
2.602420745E0,1.367676258E-1,7.287681103E-3,8.880233765E-2,1.632309681E-1
2.607396422E0,1.267313957E-1,2.034226060E-2,9.751605988E-2,1.611956456E-1
2.612372099E0,8.931100368E-2,2.879524231E-2,3.479862213E-2,1.000827930E-1
2.617347776E0,6.221127510E-2,1.869532466E-2,-3.221988678E-2,7.251123374E-2
2.622323453E0,2.200007439E-3,4.442602396E-3,-1.129512787E-1,1.130600199E-1
2.627299130E0,-3.867399693E-2,-1.858069003E-2,-1.882333755E-1,1.930614507E-1
2.632274807E0,-4.652941227E-2,-1.711331308E-2,-2.153491974E-1,2.209821905E-1
2.637250484E0,-9.291863441E-2,-2.480971813E-2,-1.756954193E-1,2.002954695E-1
2.642226161E0,-9.189248085E-2,-1.336447895E-2,-7.933712006E-2,1.221360551E-1
2.647201839E0,-8.173310757E-2,-2.078145742E-3,1.151466370E-2,8.256637961E-2
2.652177516E0,-7.175803185E-2,8.999571204E-3,7.313346863E-2,1.028528641E-1
2.657153193E0,-8.560764790E-2,-3.916963935E-3,9.625530243E-2,1.288762788E-1
2.662128870E0,-8.979225159E-2,-7.286012173E-3,1.334247589E-1,1.609903746E-1
2.667104547E0,-9.853577614E-2,-1.548373699E-2,1.465263367E-1,1.772540906E-1
2.672080224E0,-1.120587587E-1,-2.855992317E-2,1.690340042E-1,2.048055888E-1
2.677055901E0,-1.115317345E-1,-4.652513564E-2,1.344156265E-1,1.807525289E-1
2.682031578E0,-9.227228165E-2,-4.554507136E-2,1.048698425E-1,1.469224672E-1
2.687007255E0,-5.913257599E-2,-3.997813165E-2,7.559871674E-2,1.039715275E-1
2.691982932E0,-5.016517639E-2,-4.410809278E-2,5.609035492E-2,8.722497742E-2
2.696958609E0,-3.177416325E-2,-2.926693857E-2,6.523704529E-2,7.824335896E-2
2.701934286E0,-4.039525986E-3,-1.465182006E-2,5.531597137E-2,5.736593319E-2
2.706909964E0,4.522323608E-3,-9.764045477E-3,4.547405243E-2,4.672983457E-2
2.711885641E0,1.321625710E-2,4.381418228E-3,4.519176483E-2,4.728807340E-2
2.716861318E0,2.679085732E-2,-6.873756647E-4,3.539276123E-2,4.439448241E-2
2.721836995E0,3.106248379E-2,3.680676222E-3,6.646156311E-3,3.197806545E-2
2.726812672E0,1.650679111E-2,-6.220862269E-3,1.857757568E-3,1.773765891E-2
2.731788349E0,1.652145386E-2,-1.123404503E-2,-2.191066742E-2,2.965197383E-2
2.736764026E0,1.193976402E-2,-1.139959693E-2,-4.075241089E-2,4.396894095E-2
2.741739703E0,2.638900280E-2,-6.757929921E-3,-3.569507599E-2,4.490197697E-2
2.746715380E0,4.066658020E-2,-6.903439760E-3,-3.067493439E-2,5.140408374E-2
2.751691057E0,2.628183365E-2,-2.138940990E-2,-3.518486023E-2,4.884891017E-2
2.756666734E0,2.631223202E-2,-2.620035410E-2,-1.592159271E-2,4.040159927E-2
2.761642411E0,1.684665680E-2,-2.622884512E-2,-3.480625153E-2,4.672512501E-2
2.766618089E0,7.410049438E-3,-2.610972524E-2,-1.079559326E-2,2.920909821E-2
2.771593766E0,1.234757900E-2,-2.593426406E-2,-1.237869263E-3,2.875032313E-2
2.776569443E0,7.748126984E-3,-2.581758797E-2,3.493309021E-3,2.718059102E-2
2.781545120E0,7.884263992E-3,-3.039921820E-2,3.441810608E-3,3.159303952E-2
2.786520797E0,8.070468903E-3,-2.064599097E-2,3.382682800E-3,2.242391478E-2
2.791496474E0,2.255177498E-2,-2.041986585E-2,-1.431465149E-3,3.045656856E-2
2.796472151E0,1.781606674E-2,-2.494414151E-2,-1.444816589E-3,3.068729256E-2
2.801447828E0,1.756131649E-2,-1.508285105E-2,-6.173133850E-3,2.395829323E-2
2.806423505E0,2.653837204E-3,-1.495426893E-2,-2.505302429E-2,2.929721894E-2
2.811399182E0,-3.245234489E-3,-1.973493397E-2,-1.196737289E-1,1.213334272E-1
2.816374859E0,-2.364611626E-2,-2.448193729E-2,-2.182178497E-1,2.208563651E-1
2.821350536E0,-5.840182304E-3,-1.452222466E-2,-1.782503128E-1,1.789362366E-1
2.826326214E0,1.682174206E-2,-9.036034346E-3,2.754116058E-2,3.351322797E-2
2.831301891E0,2.091598511E-2,1.074607670E-2,1.650629044E-1,1.667294785E-1
2.836277568E0,1.568472385E-2,1.105630398E-2,1.732120514E-1,1.742718198E-1
2.841253245E0,3.423833847E-2,2.050903440E-2,1.053256989E-1,1.126338633E-1
2.846228922E0,4.293704033E-2,2.951861918E-2,5.228424072E-2,7.381449816E-2
2.851204599E0,4.206609726E-2,1.930561662E-2,2.818012238E-2,5.418839976E-2
2.856180276E0,3.196001053E-2,1.868090034E-2,1.374244690E-2,3.948763296E-2
2.861155953E0,4.123938084E-2,-7.791072130E-4,4.133224487E-3,4.145331211E-2
2.866131630E0,1.745748520E-2,3.819063306E-3,-2.917385101E-2,3.421202445E-2
2.871107307E0,-1.092576981E-2,3.681600094E-3,-5.270195007E-2,5.394832867E-2
2.876082984E0,-1.558578014E-2,-1.254379749E-3,-8.074951172E-2,8.224945990E-2
2.881058661E0,-6.115078926E-3,7.993966341E-3,-8.005142212E-2,8.068164520E-2
2.886034339E0,-2.516305447E-2,7.719412446E-3,-3.662967682E-2,4.510545269E-2
2.891010016E0,-2.005529404E-2,2.175000310E-2,1.114654541E-2,3.161523254E-2
2.895985693E0,-2.903211117E-2,3.092136979E-2,5.375099182E-2,6.847016657E-2
2.900961370E0,-4.727756977E-2,3.991399705E-2,7.699108124E-2,9.877207275E-2
2.905937047E0,-5.587661266E-2,4.399320483E-2,7.629680634E-2,1.043014888E-1
2.910912724E0,-5.020964146E-2,3.374171257E-2,8.036422729E-2,1.005878735E-1
2.915888401E0,-5.893766880E-2,3.297024965E-2,7.966423035E-2,1.044369463E-1
2.920864078E0,-5.345118046E-2,3.690867126E-2,7.423591614E-2,9.864202934E-2
2.925839755E0,-6.235814095E-2,4.081422091E-2,6.886482239E-2,1.014726669E-1
2.930815432E0,-6.174504757E-2,3.998985887E-2,6.354331970E-2,9.720798933E-2
2.935791109E0,-5.174267292E-2,3.437265754E-2,4.878234863E-2,7.898418402E-2
2.940766786E0,-5.132055283E-2,4.299652576E-2,3.889465332E-2,7.742928662E-2
2.945742464E0,-2.726185322E-2,3.725183010E-2,4.809665680E-2,6.666480242E-2
2.950718141E0,-4.144155979E-2,2.194939554E-2,3.348922729E-2,5.762557754E-2
2.955693818E0,-1.756501198E-2,1.151683927E-2,-1.897907257E-2,2.830852218E-2
2.960669495E0,-1.747763157E-2,-8.166030049E-3,-9.002590179E-2,9.206961847E-2
2.965645172E0,-1.248896122E-2,-3.686398268E-3,-1.415119171E-1,1.421097687E-1
2.970620849E0,-7.489323616E-3,-8.491352201E-3,-1.071081161E-1,1.077048819E-1
2.975596526E0,-7.433414459E-3,-8.354172111E-3,-4.923439026E-2,5.048834545E-2
2.980572203E0,6.612896919E-3,-3.578156233E-3,1.293849945E-2,1.496457068E-2
2.985547880E0,6.194353104E-3,-3.641605377E-3,3.187084198E-2,3.267081065E-2
2.990523557E0,2.012705803E-2,5.690097809E-3,2.689361572E-2,3.406966752E-2
2.995499234E0,3.425085545E-2,5.395889282E-3,2.667045593E-2,4.374414177E-2
3.000474911E0,3.437089920E-2,3.494024277E-4,7.411956787E-3,3.516273450E-2
3.005450589E0,2.989637852E-2,8.729100227E-5,-1.170444489E-2,3.210599785E-2
3.010426266E0,3.005397320E-2,-4.921078682E-3,-1.164913177E-2,3.260614346E-2
3.015401943E0,1.565933228E-3,-1.463623345E-2,-2.582073212E-2,2.972173756E-2
3.020377620E0,1.602888107E-3,-1.952809095E-2,-3.035354614E-2,3.612829016E-2
3.025353297E0,6.285667419E-3,-2.912765741E-2,-4.433250427E-2,5.341629879E-2
3.030328974E0,6.179451942E-3,-1.954472065E-2,-4.395294189E-2,4.849786421E-2
3.035304651E0,-1.297104359E-2,-2.418479323E-2,-5.781841278E-2,6.400094571E-2
3.040280328E0,-8.219480515E-3,-3.343233466E-2,-4.782867432E-2,5.893100158E-2
3.045256005E0,1.292228699E-3,-3.775198758E-2,-4.742717743E-2,6.063183636E-2
3.050231682E0,1.226425171E-3,-2.768167853E-2,-2.328968048E-2,3.619652831E-2
3.055207359E0,5.959510803E-3,-1.758676767E-2,-4.110336304E-3,1.901854439E-2
3.060183036E0,2.015137672E-2,-2.833664417E-3,1.016044617E-2,2.274516002E-2
3.065158714E0,2.002942562E-2,-7.242515683E-3,1.006221771E-2,2.355589415E-2
3.070134391E0,1.980745792E-2,-1.167194545E-2,1.947498322E-2,3.013046085E-2
3.075110068E0,3.383278847E-2,-3.041225672E-2,9.818077087E-3,4.653984929E-2
3.080085745E0,2.394890785E-2,-3.480826318E-2,9.746551514E-3,4.336081917E-2
3.085061422E0,9.448766708E-3,-4.876078665E-2,9.672164917E-3,5.060083281E-2
3.090037099E0,9.368777275E-3,-4.836389422E-2,1.434040070E-2,5.130777080E-2
3.095012776E0,4.540920258E-3,-4.807265103E-2,1.422405243E-2,5.033809096E-2
3.099988453E0,4.449248314E-3,-2.878364921E-2,9.366035461E-3,3.059439315E-2
3.104964130E0,-4.426240921E-4,-2.874554694E-2,-4.939079285E-3,2.917013694E-2
3.109939807E0,-1.489293575E-2,-2.881011367E-2,-1.436138153E-2,3.546930313E-2
3.114915484E0,1.346242428E-2,-2.412563562E-2,-1.895141602E-2,3.350282571E-2
3.119891161E0,3.593564034E-3,-9.983181953E-3,-1.400661469E-2,1.757164987E-2
3.124866839E0,-1.393437386E-3,-5.353242159E-3,-1.860809326E-2,1.941288243E-2
3.129842516E0,1.740360260E-2,-1.965355873E-2,-8.928298950E-3,2.772836592E-2
3.134818193E0,-1.629304886E-2,-1.478336751E-2,-2.306079865E-2,3.187180306E-2
3.139793870E0,2.524495125E-3,-1.939958334E-2,-3.232765198E-2,3.778616138E-2
3.144769547E0,-1.685261726E-2,-1.438419521E-2,-1.302337646E-2,2.570066371E-2
3.149745224E0,-1.712536812E-2,-1.415909827E-2,-1.286792755E-2,2.567765286E-2
3.154720901E0,-2.209317684E-2,-9.085059166E-3,6.272315979E-3,2.469794953E-2
3.159696578E0,-1.261925697E-2,-1.360766590E-2,1.573753357E-2,2.433277996E-2
3.164672255E0,-1.277387142E-2,9.588003159E-4,2.513027191E-2,2.820676613E-2
3.169647932E0,-1.297700405E-2,1.152172685E-3,2.970123291E-2,3.243290570E-2
3.174623609E0,-2.752625942E-2,-3.506898880E-3,2.475261688E-2,3.718447714E-2
3.179599286E0,-4.017472267E-3,6.067201495E-3,2.460098267E-2,2.565461685E-2
3.184574964E0,-1.399397850E-2,-3.489851952E-3,2.920722961E-2,3.257411185E-2
3.189550641E0,-1.908886433E-2,1.233279705E-3,1.952457428E-2,2.733339937E-2
3.194526318E0,9.147882462E-3,1.123577356E-3,2.891159058E-2,3.034511904E-2
3.199501995E0,-1.978015900E-2,-1.328809559E-2,3.821468353E-2,4.503543285E-2
3.204477672E0,8.513569832E-3,-1.337912679E-2,3.319644928E-2,3.678975604E-2
3.209453349E0,3.333330154E-3,-1.822410524E-2,4.478454590E-3,1.906005397E-2
3.214429026E0,1.249289513E-2,-1.358288527E-2,-9.759902954E-3,2.087637197E-2
3.219404703E0,-6.863594055E-3,5.166828632E-4,-9.640693665E-3,1.184562615E-2
3.224380380E0,1.203143597E-2,9.852573276E-3,-4.100799561E-5,1.555089493E-2
3.229356057E0,1.177632809E-2,1.430477202E-2,-4.764556885E-3,1.913137235E-2
3.234331734E0,-2.672314644E-3,4.531770945E-3,9.537696838E-3,1.089246870E-2
3.239307411E0,-2.169656754E-2,9.028315544E-3,2.846431732E-2,3.691163617E-2
3.244283089E0,-2.626550198E-2,1.348738372E-2,2.823257446E-2,4.085173649E-2
3.249258766E0,-3.074789047E-2,8.424714208E-3,1.849937439E-2,3.685967215E-2
3.254234443E0,-3.044307232E-2,3.346860409E-3,1.359748840E-2,3.350930942E-2
3.259210120E0,-2.539229393E-2,-1.688688993E-3,2.298164368E-2,3.428959328E-2
3.264185797E0,-4.423105717E-2,-1.870185137E-3,8.557319641E-3,4.509004025E-2
3.269161474E0,-2.507710457E-2,2.589762211E-3,1.326751709E-2,2.848850736E-2
3.274137151E0,-4.412329197E-2,-2.529442310E-3,1.319789886E-2,4.612426159E-2
3.279112828E0,-1.077723503E-2,6.639510393E-3,-1.061344147E-2,1.651899007E-2
3.284088505E0,-1.099836826E-2,1.480370760E-3,-2.947139740E-2,3.149156818E-2
3.289064182E0,7.826209068E-3,-8.378073573E-3,-4.817867279E-2,4.952399597E-2
3.294039859E0,2.664744854E-2,-8.606120944E-3,-5.725383759E-2,6.373502765E-2
3.299015536E0,2.167296410E-2,-8.736178279E-3,-6.151962280E-2,6.580807073E-2
3.303991214E0,1.668882370E-2,-8.813992143E-3,-3.725433350E-2,4.176228751E-2
3.308966891E0,6.895422935E-3,1.005172729E-2,1.069068909E-3,1.223629795E-2
3.313942568E0,2.087485790E-2,2.390941978E-2,5.807495117E-2,6.618247502E-2
3.318918245E0,-8.049845695E-3,3.280076385E-2,8.137607574E-2,8.810650276E-2
3.323893922E0,-1.288866997E-2,3.212100267E-2,7.122993469E-2,7.919330920E-2
3.328869599E0,-2.238452435E-2,4.094386101E-2,4.691791534E-2,6.617218044E-2
3.333845276E0,-8.061408997E-3,3.551128507E-2,1.330947876E-2,3.877086415E-2
3.338820953E0,-1.775372028E-2,2.062699199E-2,-5.754470825E-3,2.781692501E-2
3.343796630E0,-1.332449913E-2,-3.630280495E-3,-2.938270569E-2,3.246636116E-2
3.348772307E0,-1.863372326E-2,-2.293688059E-2,-5.753803253E-2,6.468339293E-2
3.353747984E0,-2.059936523E-4,-2.774095535E-2,-8.070659637E-2,8.534141864E-2
3.358723661E0,-1.981747150E-2,-4.669930041E-2,-7.520484924E-2,9.071563363E-2
3.363699339E0,1.792120934E-2,-3.685516119E-2,-4.603481293E-2,6.163340532E-2
3.368675016E0,8.066296577E-3,-2.704811096E-2,3.984737396E-2,4.883112387E-2
3.373650693E0,7.945418358E-3,-1.748247445E-2,7.751369476E-2,7.985699382E-2
3.378626370E0,-1.137173176E-2,-8.053988218E-3,-8.568763733E-3,1.635868947E-2
3.383602047E0,-2.619004250E-2,-1.753835380E-2,-2.600841522E-1,2.619871722E-1
3.388577724E0,-3.164494038E-2,-3.551372886E-2,-5.189952850E-1,5.211705413E-1
3.393553401E0,-8.359789848E-3,-2.381992340E-2,-3.721780777E-1,3.730332376E-1
3.398529078E0,1.049423218E-2,7.076501846E-3,9.149646759E-2,9.236779400E-2
3.403504755E0,5.857586861E-3,3.700003028E-2,4.658031464E-1,4.673070561E-1
3.408480432E0,-8.596658707E-3,5.575223267E-2,5.901489258E-1,5.928389061E-1
3.413456109E0,-1.414978504E-2,6.821832061E-2,5.093955994E-1,5.141379507E-1
3.418431786E0,-6.025671959E-3,5.132126808E-2,2.679624557E-1,2.728993569E-1
3.423407464E0,1.127135754E-2,5.664050579E-3,9.506225586E-2,9.589555495E-2
3.428383141E0,3.301775455E-2,-2.566817403E-2,-1.238536835E-1,1.307239924E-1
3.433358818E0,5.892205238E-2,-4.744662344E-2,-3.503866196E-1,3.584602816E-1
3.438334495E0,6.495344639E-2,-5.929593742E-2,-4.562416077E-1,4.646411120E-1
3.443310172E0,8.012735844E-2,-3.730061650E-2,-3.475065231E-1,3.585700952E-1
3.448285849E0,8.603692055E-2,-1.972496510E-2,-1.542606354E-1,1.777294843E-1
3.453261526E0,1.119636297E-1,1.221200824E-2,-1.025009155E-2,1.130931117E-1
3.458237203E0,1.154130697E-1,2.989938855E-2,6.114101410E-2,1.339864684E-1
3.463212880E0,9.642052650E-2,4.764378071E-2,5.578994751E-2,1.211584335E-1
3.468188505E0,5.016756058E-2,5.141013861E-2,2.184772491E-2,7.508068706E-2
3.473164130E0,3.799962997E-2,5.085667968E-2,-2.137756348E-2,6.698786432E-2
3.478139755E0,-1.664841175E-2,4.141798615E-2,-6.902599335E-2,8.220223202E-2
3.483115380E0,-5.225467682E-2,1.836851239E-2,-1.352357864E-1,1.461392193E-1
3.488091005E0,-7.873070240E-2,7.132887840E-4,-1.533403397E-1,1.723725386E-1
3.493066630E0,-8.195805550E-2,-6.997615099E-3,-1.332254410E-1,1.565730105E-1
3.498042255E0,-7.152068615E-2,-2.401329577E-2,-6.572151184E-2,1.000558046E-1
3.503017880E0,-5.687916279E-2,-3.140285611E-2,1.077461243E-2,6.585947771E-2
3.507993505E0,-6.145322323E-2,-2.934867144E-2,7.240295410E-2,9.939834467E-2
3.512969130E0,-8.492922783E-2,-3.692325950E-2,1.145210266E-1,1.472798913E-1
3.517944755E0,-7.951295376E-2,-2.549791336E-2,1.420192719E-1,1.647480712E-1
3.522920380E0,-9.783458710E-2,-3.330862522E-2,1.407947540E-1,1.746546126E-1
3.527896005E0,-1.208047867E-1,-1.745863259E-2,1.253461838E-1,1.749578981E-1
3.532871630E0,-1.153496504E-1,-3.042981029E-2,1.148118973E-1,1.655695834E-1
3.537847255E0,-1.245448589E-1,-1.500003040E-2,8.542060852E-2,1.517666075E-1
3.542822880E0,-9.593367577E-2,-1.893597841E-2,7.055759430E-2,1.205828161E-1
3.547798505E0,-7.251560688E-2,-8.791878819E-3,4.635238647E-2,8.651216161E-2
3.552774130E0,-4.459667206E-2,-1.302270591E-2,5.559635162E-2,7.245280079E-2
3.557749755E0,-3.100371361E-2,-1.251460612E-2,6.474494934E-2,7.286805946E-2
3.562725380E0,-1.262211800E-2,-1.691272855E-2,7.380294800E-2,7.676088446E-2
3.567701005E0,2.955329418E-2,-2.612498403E-2,6.851768494E-2,7.906064215E-2
3.572676630E0,1.929581165E-2,-2.116215229E-2,6.326198578E-2,6.944237814E-2
3.577652255E0,2.357518673E-2,-3.539447486E-2,4.853153229E-2,6.452803969E-2
3.582627880E0,5.171227455E-2,-3.535240889E-2,1.491355896E-2,6.439228521E-2
3.587603505E0,5.132734776E-2,-2.585855126E-2,5.293846130E-3,5.771642841E-2
3.592579130E0,6.529068947E-2,-3.067672253E-2,-1.375484467E-2,7.343794107E-2
3.597554755E0,5.069792271E-2,-3.070622683E-2,-2.315425873E-2,6.363388586E-2
3.602530432E0,4.572379589E-2,-3.073547781E-2,-4.197216034E-2,6.926035915E-2
3.607506109E0,6.443119049E-2,-2.596481144E-2,-5.112552643E-2,8.625177792E-2
3.612481786E0,3.544533253E-2,-2.122755349E-2,-3.170490265E-2,5.207860863E-2
3.617457464E0,3.994047642E-2,-1.652976871E-2,-3.618812561E-2,5.637424363E-2
3.622433141E0,3.020644188E-2,-2.132961154E-2,-1.689910889E-2,4.065662727E-2
3.627408818E0,1.110756397E-2,-1.179276407E-2,-7.275581360E-3,1.775897930E-2
3.632384495E0,6.413459778E-3,-1.652973890E-2,7.014274597E-3,1.906737482E-2
3.637360172E0,-2.938866615E-3,-1.637645066E-2,2.182960510E-3,1.678065522E-2
3.642335849E0,-7.568359375E-3,-2.096660435E-2,1.639842987E-2,2.767285789E-2
3.647311526E0,6.682515144E-3,-1.597666740E-2,6.770133972E-3,1.859420942E-2
3.652287203E0,-3.082633018E-3,-2.046783268E-2,1.623344421E-2,2.630512331E-2
3.657262880E0,1.275777817E-3,-1.078470051E-2,2.089786530E-2,2.355118146E-2
3.662238557E0,6.459951401E-4,-2.018257976E-2,1.806259155E-3,2.027353959E-2
3.667214234E0,2.325248718E-2,-2.485595644E-2,-6.929397583E-2,7.720201951E-2
3.672189911E0,2.524733543E-3,-1.539833844E-2,-1.587409973E-1,1.595060730E-1
3.677165589E0,9.117126465E-4,-2.485369146E-2,-1.904582977E-1,1.920752466E-1
3.682141266E0,3.735160828E-2,-1.007862389E-2,-1.127128601E-1,1.191675717E-1
3.687116943E0,5.480194092E-2,-4.674419761E-3,3.556919098E-2,6.550015477E-2
3.692092620E0,5.827295780E-2,1.001566648E-2,1.398315430E-1,1.518186800E-1
3.697068297E0,7.141661644E-2,1.947689056E-2,1.197481155E-1,1.407810127E-1
3.702043974E0,7.020509243E-2,3.319865465E-2,5.710601807E-2,9.639503604E-2
3.707019651E0,7.375216484E-2,3.240710497E-2,9.235382080E-3,8.108572349E-2
3.711995328E0,7.262361050E-2,2.207399905E-2,-2.603530884E-4,7.590466401E-2
3.716971005E0,4.812121391E-2,1.672255993E-2,-9.724617004E-3,5.186389317E-2
3.721946682E0,5.033612251E-3,1.631760597E-2,-2.388858795E-2,2.936436874E-2
3.726922359E0,-1.390135288E-2,-3.026813269E-3,-4.743957520E-2,4.952698765E-2
3.731898036E0,-1.853513718E-2,-7.913365960E-3,-7.553005219E-2,7.817263878E-2
3.736873714E0,-5.657434464E-2,-3.211051226E-3,-8.436965942E-2,1.016327051E-1
3.741849391E0,-6.590926647E-2,1.407325268E-3,-5.038452148E-2,8.297356191E-2
3.746825068E0,-6.551468372E-2,-3.567248583E-3,1.179027557E-2,6.666265554E-2
3.751800745E0,-6.492030621E-2,1.002967358E-3,5.442714691E-2,8.472288016E-2
3.756776422E0,-6.412744522E-2,5.541473627E-3,9.193515778E-2,1.122279395E-1
3.761752099E0,-6.329023838E-2,1.473951340E-2,1.053829193E-1,1.238081872E-1
3.766727776E0,-8.145511150E-2,1.426798105E-2,1.139736176E-1,1.408136924E-1
3.771703453E0,-8.052706718E-2,2.320146561E-2,1.272497177E-1,1.523660304E-1
3.776679130E0,-7.496058941E-2,3.190693259E-2,1.119413376E-1,1.384485658E-1
3.781654807E0,-6.959664822E-2,4.519873857E-2,9.678173065E-2,1.274885203E-1
3.786630484E0,-8.817338943E-2,4.883155227E-2,6.277561188E-2,1.187427663E-1
3.791606161E0,-6.870961189E-2,3.813731670E-2,4.331207275E-2,8.972960124E-2
3.796581839E0,-5.420923233E-2,4.173293710E-2,4.301261902E-2,8.081066949E-2
3.801557516E0,-5.412507057E-2,2.154967189E-2,3.797340393E-2,6.954057110E-2
3.806533193E0,-3.979611397E-2,1.578006148E-2,1.873111725E-2,4.672896084E-2
3.811508870E0,-3.508222103E-2,5.252480507E-3,4.399299622E-3,3.574499435E-2
3.816484547E0,-1.814246178E-3,-5.033820868E-3,-8.105754852E-2,8.123396466E-2
3.821460224E0,-1.625728607E-2,-1.017886400E-2,-1.468229294E-1,1.480705278E-1
3.826435901E0,-1.143252850E-2,3.968834877E-3,-1.550836563E-1,1.555551182E-1
3.831411578E0,2.654314041E-2,-8.034408092E-4,-8.255100250E-2,8.671707925E-2
3.836387255E0,1.171302795E-2,-5.587100983E-3,-1.091957092E-3,1.302317517E-2
3.841362932E0,6.451129913E-3,-5.729466677E-3,3.221321106E-2,3.334868562E-2
3.846338609E0,6.034016609E-3,-2.027596533E-2,3.674793243E-2,4.240205968E-2
3.851314286E0,2.012300491E-2,-2.995911241E-2,1.747035980E-2,4.009609974E-2
3.856289964E0,2.490448952E-2,-1.576793194E-2,-1.118278503E-2,3.152643267E-2
3.861265641E0,4.889440536E-2,-1.103216410E-2,-6.394386292E-3,5.052979019E-2
3.866241318E0,3.005182743E-2,-6.342262030E-3,3.090858459E-3,3.086891682E-2
3.871216995E0,1.606214046E-2,-1.123321056E-2,1.725292206E-2,2.611207949E-2
3.876192672E0,3.527641296E-2,-1.149475574E-2,2.829551697E-3,3.720969073E-2
3.881168349E0,3.518319130E-2,-7.005631924E-3,-2.095127106E-2,4.154385138E-2
3.886144026E0,3.493726254E-2,-1.194858551E-2,-4.926681519E-2,6.156784946E-2
3.891119703E0,2.509403229E-2,-2.149654925E-2,-5.359363556E-2,6.296101856E-2
3.896095380E0,1.533424854E-2,-2.612049878E-2,-7.213211060E-2,7.823337532E-2
3.901071057E0,2.944946289E-2,-2.585513890E-2,-6.203460693E-2,7.337609644E-2
3.906046734E0,2.450573444E-2,-2.549608052E-2,-4.253387451E-2,5.531466011E-2
3.911022411E0,2.920103073E-2,-6.190747023E-3,-4.213333130E-3,3.014594037E-2
3.915998089E0,1.486456394E-2,-1.074406505E-2,5.295753479E-3,1.909018596E-2
3.920973766E0,3.383445740E-2,-5.807191133E-3,3.372764587E-2,4.812533712E-2
3.925949443E0,2.415525913E-2,-5.711108446E-3,3.343200684E-2,4.163883265E-2
3.930925120E0,3.824818134E-2,-1.041543484E-2,4.656791687E-3,3.991353615E-2
3.935900797E0,1.413333416E-2,-2.462871373E-2,-4.870414734E-3,2.881051221E-2
3.940876474E0,2.820599079E-2,-3.391754627E-2,-2.856540680E-2,5.255435593E-2
3.945852151E0,2.791726589E-2,-4.308420420E-2,-2.832126617E-2,5.863204332E-2
3.950827828E0,3.712654114E-2,-4.741962254E-2,-2.807998657E-2,6.644912569E-2
3.955803505E0,-1.067042351E-2,-4.687450826E-2,-2.310085297E-2,5.333598101E-2
3.960779182E0,3.661632538E-3,-4.163652658E-2,8.325576782E-4,4.180551460E-2
3.965754859E0,-1.536417007E-2,-3.655087948E-2,2.456855774E-2,4.664374065E-2
3.970730536E0,-1.534223557E-2,-3.149485588E-2,1.013183594E-2,3.646867476E-2
3.975706214E0,3.522872925E-3,-1.704786718E-2,1.008129120E-2,2.011648183E-2
3.980681891E0,3.286480904E-3,-2.655968070E-2,5.302429199E-4,2.676749434E-2
3.985657568E0,-2.543771267E-2,-2.175308764E-2,1.005268097E-2,3.494753843E-2
3.990633245E0,1.745712757E-2,-1.218053699E-2,5.229949951E-3,2.191960677E-2
3.995608922E0,-1.684904099E-3,-2.168177068E-2,5.188941956E-3,2.235762063E-2
4.000584599E0,3.024101257E-3,-1.210981607E-2,9.903907776E-3,1.593361927E-2
4.005560276E0,-1.609992981E-2,-1.211464405E-2,-1.390457153E-2,2.448079757E-2
4.010535953E0,2.873659134E-3,-2.628833055E-3,-9.017944336E-3,9.823034159E-3
4.015511630E0,-1.952528954E-3,-7.461160421E-3,5.311965942E-3,9.364735251E-3
4.020487307E0,-2.088022232E-2,-2.762615681E-3,-4.232406616E-3,2.148322591E-2
4.025462984E0,-3.010344505E-2,6.702810526E-3,-4.208564758E-3,3.112646929E-2
4.030438661E0,-3.444886208E-2,6.586015224E-3,1.480388641E-2,3.806907863E-2
4.035414339E0,-2.456367016E-2,6.470173597E-3,1.941776276E-2,3.197321611E-2
4.040390016E0,-2.420532703E-2,6.400048733E-3,3.823089600E-2,4.569967056E-2
4.045365693E0,-2.859842777E-2,1.102784276E-2,4.264354706E-2,5.251624028E-2
4.050341370E0,-3.770339489E-2,6.120085716E-3,4.701995850E-2,6.057951743E-2
4.055317047E0,-2.778971195E-2,6.052911282E-3,4.186725616E-2,5.061396017E-2
4.060292724E0,-4.170107841E-2,1.073479652E-2,1.776313782E-2,4.658052020E-2
4.065268401E0,-2.245891094E-2,1.221746206E-3,3.379821777E-3,2.274463760E-2
4.070244078E0,-1.762390137E-2,-3.406018019E-3,8.110046387E-3,1.969709904E-2
4.075219755E0,-3.667402267E-2,1.450628042E-3,-1.092910767E-2,3.829534770E-2
4.080195432E0,-2.232587337E-2,-1.737336814E-2,-1.081752777E-2,3.028691879E-2
4.085171109E0,-1.764559746E-2,-1.229798794E-2,3.544807434E-3,2.179846960E-2
4.090146786E0,-2.704381943E-2,-2.573966980E-3,1.776313782E-2,3.245801196E-2
4.095122464E0,-4.101121426E-2,2.326905727E-3,2.710151672E-2,4.921205537E-2
4.100098141E0,-1.672208309E-2,2.547115088E-3,3.159236908E-2,3.583564765E-2
4.105073818E0,-2.097296715E-2,1.221132278E-2,2.653121948E-2,3.595674293E-2
4.110049495E0,-1.089167595E-2,7.600694895E-3,2.150440216E-2,2.527525430E-2
4.115025172E0,-5.542039871E-3,1.253184676E-2,1.175785065E-2,1.805570384E-2
4.120000849E0,-9.734034538E-3,2.211928368E-2,2.583599091E-2,3.537672349E-2
4.124976526E0,-4.189491272E-3,2.687832713E-2,1.603031158E-2,3.157478735E-2
4.129952203E0,6.057500839E-3,2.684921026E-2,2.530002594E-2,3.738535436E-2
4.134927880E0,-2.725005150E-3,2.212935686E-2,1.074218750E-2,2.474931677E-2
4.139903557E0,1.695573330E-2,7.894337177E-3,-3.680229187E-3,1.906204444E-2
4.144879234E0,-1.619338989E-3,3.230124712E-3,-2.746582031E-2,2.770247732E-2
4.149854911E0,3.549456596E-3,-6.092548370E-3,-3.678989410E-2,3.745949941E-2
4.154830589E0,1.827323437E-2,-1.538239419E-2,-4.129886627E-2,4.770875707E-2
4.159806266E0,3.297638893E-2,-2.459481359E-2,-4.578304291E-2,6.155025670E-2
4.164781943E0,2.396798134E-2,-3.373044729E-2,-4.549980164E-2,6.150153781E-2
4.169757620E0,2.933275700E-2,-3.799661994E-2,-5.472373962E-2,7.279314142E-2
4.174733297E0,3.924775124E-2,-3.273028135E-2,-3.061199188E-2,5.957139701E-2
4.179708974E0,3.473377228E-2,-1.326866448E-2,-1.940727234E-3,3.723249677E-2
4.184684651E0,3.020751476E-2,-8.323282003E-3,4.074668884E-2,5.140100800E-2
4.189660328E0,3.521466255E-2,1.073035598E-2,5.933856964E-2,6.983035762E-2
4.194636005E0,1.169025898E-2,2.487042546E-2,6.352996826E-2,6.921890699E-2
4.199611682E0,2.555131912E-3,3.420162201E-2,3.445148468E-2,4.861259553E-2
4.204587359E0,-1.856446266E-3,2.925440669E-2,-3.870010376E-3,2.956761208E-2
4.209563036E0,-2.063155174E-2,1.490888000E-2,-2.760982513E-2,3.755313667E-2
4.214538714E0,-1.106619835E-2,1.023107767E-2,-5.111503601E-2,5.329054890E-2
4.219514391E0,-2.077782154E-2,8.374750614E-4,-7.439804077E-2,7.724951588E-2
4.224490068E0,-1.626527309E-2,-1.792369783E-2,-8.797931671E-2,9.124789434E-2
4.229465745E0,-2.128732204E-2,-2.692928910E-2,-8.245563507E-2,8.931555546E-2
4.234441422E0,1.667368412E-2,-2.631172538E-2,-2.002334595E-2,3.703043367E-2
4.239417099E0,1.663851738E-2,-1.620860398E-2,5.609703064E-2,6.071602713E-2
4.244392776E0,7.208824158E-3,-1.584009826E-2,5.084991455E-2,5.374560139E-2
4.249368453E0,-1.189363003E-2,-2.982878685E-2,-7.303142548E-2,7.977972216E-2
4.254344130E0,-2.169930935E-2,-3.389069438E-2,-3.145570755E-1,3.171207860E-1
4.259319807E0,-3.627526760E-2,-3.699214756E-2,-4.923524857E-1,4.950709890E-1
4.264295484E0,-2.785921097E-3,-3.919307888E-2,-2.413778305E-1,2.445549342E-1
4.269271161E0,1.684331894E-2,-1.268072426E-2,1.593704224E-1,1.607589179E-1
4.274246839E0,3.186845779E-2,2.698136866E-2,4.522962570E-1,4.542196572E-1
4.279222516E0,8.576035500E-3,5.548721552E-2,5.339050293E-1,5.368491034E-1
4.284198193E0,-1.048946381E-2,5.888769031E-2,4.440059662E-1,4.480168378E-1
4.289173870E0,3.280520439E-3,5.679453909E-2,2.314815521E-1,2.383696509E-1
4.294149547E0,1.182615757E-2,2.108213305E-2,7.776546478E-2,8.143575290E-2
4.299125224E0,1.524376869E-2,-1.478703320E-2,-1.221027374E-1,1.239359001E-1
4.304100901E0,3.236663342E-2,-4.096238315E-2,-3.487310410E-1,3.526171503E-1
4.309076578E0,4.868376255E-2,-5.237258971E-2,-4.499340057E-1,4.555805158E-1
4.314052255E0,4.076552391E-2,-4.413028061E-2,-3.365802765E-1,3.418999739E-1
4.319027932E0,5.691230297E-2,-1.650194824E-2,-1.482372284E-1,1.596421010E-1
4.324003609E0,6.909644604E-2,1.605376601E-2,4.215240479E-4,7.093814165E-2
4.328979286E0,6.325709820E-2,3.420129418E-2,4.323768616E-2,8.390879871E-2
4.333954964E0,6.813776493E-2,3.341445327E-2,6.180191040E-2,9.787112356E-2
4.338930641E0,3.111028671E-2,1.879760623E-2,3.260803223E-2,4.883117554E-2
4.343906318E0,-5.094647408E-3,-4.593759775E-3,-1.541709900E-2,1.687438896E-2
4.348881995E0,-3.624796867E-2,-1.768608391E-2,-7.730388641E-2,8.719291056E-2
4.353857672E0,-8.189702034E-2,-3.486183286E-2,-1.338768005E-1,1.607652545E-1
4.358833349E0,-9.944021702E-2,-4.204611480E-2,-1.519041061E-1,1.863627913E-1
4.363809026E0,-1.129055023E-1,-4.417304695E-2,-9.845829010E-2,1.561824107E-1
4.368784703E0,-9.352731705E-2,-5.094137788E-2,-2.640151978E-2,1.097243057E-1
4.373760380E0,-9.365987778E-2,-3.867200017E-2,4.510021210E-2,1.109131436E-1
4.378736057E0,-7.489705086E-2,-3.131712973E-2,7.328319550E-2,1.093652485E-1
4.383711734E0,-7.518005371E-2,-2.403610945E-2,9.647083282E-2,1.246450826E-1
4.388687411E0,-7.535874844E-2,-3.111223876E-2,1.384487152E-1,1.606703430E-1
4.393663089E0,-8.028483391E-2,-2.398589253E-2,1.705818176E-1,1.900503462E-1
4.398638766E0,-8.997094631E-2,-1.241940260E-2,1.597242355E-1,1.837412424E-1
4.403614443E0,-9.978222847E-2,-5.998015404E-3,1.157503128E-1,1.529398713E-1
4.408590120E0,-7.647955418E-2,4.824355245E-3,8.642101288E-2,1.155031951E-1
4.413565797E0,-5.352449417E-2,1.055374742E-3,4.786491394E-2,7.181250085E-2
4.418541474E0,-3.076100349E-2,-2.784505486E-3,2.862739563E-2,4.211318781E-2
4.423517151E0,6.055951118E-3,2.866148949E-3,1.430034637E-2,1.579206320E-2
4.428492828E0,1.892578602E-2,-5.826979876E-3,1.907539368E-2,2.749563083E-2
4.433468505E0,3.184056282E-2,-5.046620965E-3,3.329086304E-2,4.634189666E-2
4.438444182E0,4.010510445E-2,-9.129971266E-3,5.211353302E-2,6.638972889E-2
4.443419859E0,6.290173531E-2,-1.806846261E-2,6.124114990E-2,8.963021860E-2
4.448395536E0,7.151746750E-2,-2.243331075E-2,4.177570343E-2,8.580915444E-2
4.453371214E0,5.177378654E-2,-2.205803990E-2,3.455162048E-3,5.638280094E-2
4.458346891E0,7.993280888E-2,-2.647274733E-2,3.410339355E-3,8.427152960E-2
4.463322568E0,6.996929646E-2,-2.128967643E-2,3.351211548E-3,7.321327330E-2
4.468298245E0,6.499075890E-2,-2.100060880E-2,-1.472473145E-3,6.831538984E-2
4.473273922E0,6.010472775E-2,-2.071395516E-2,7.984161377E-3,6.407334133E-2
4.478249599E0,5.045866966E-2,-1.092627645E-2,-6.375312805E-3,5.202024101E-2
4.483225276E0,3.134596348E-2,-1.277714968E-3,-2.060604095E-2,3.753412988E-2
4.488200953E0,1.703763008E-2,3.548339009E-3,-2.520942688E-2,3.063309896E-2
4.493176630E0,-1.796483994E-3,1.312743127E-2,-6.046295166E-3,1.456415091E-2
4.498152307E0,-1.479744911E-3,3.212368488E-2,-1.288414001E-3,3.218354838E-2
4.503127984E0,-5.913019180E-3,2.251538634E-2,2.242279053E-2,3.232163290E-2
4.508103661E0,4.087448120E-3,1.764614880E-2,4.117107391E-2,4.497945227E-2
4.513079339E0,-2.398490906E-4,2.710774541E-2,2.652263641E-2,3.792542196E-2
4.518055016E0,1.662969589E-4,1.269683242E-2,1.200389862E-2,1.747371713E-2
4.523030693E0,1.940846443E-2,-1.485273242E-3,1.661777496E-2,2.559384639E-2
4.528006370E0,2.879095078E-2,-6.064996123E-3,-7.272720337E-3,3.030834020E-2
4.532982047E0,1.874315739E-2,-1.065771282E-2,-3.566646576E-2,4.167720685E-2
4.537957724E0,2.731394768E-2,-1.062351465E-2,-8.750534058E-2,9.228269302E-2
4.542933401E0,-7.333636284E-3,-1.068548858E-2,-1.863431931E-1,1.867933283E-1
4.547909078E0,5.791783333E-3,-1.053594053E-2,-1.941404343E-1,1.945123621E-1
4.552884755E0,3.805744648E-2,-9.927466512E-3,-1.069459915E-1,1.139489751E-1
4.557860432E0,3.712403774E-2,5.164161325E-3,3.645992279E-2,5.228947036E-2
4.562836109E0,5.549919605E-2,1.527929306E-2,1.026582718E-1,1.176959571E-1
4.567811786E0,6.432759762E-2,3.434056044E-2,9.232711792E-2,1.176503745E-1
4.572787464E0,5.878579617E-2,4.343917966E-2,5.360507965E-2,9.064345936E-2
4.577763141E0,5.334258080E-2,4.745131731E-2,2.944946289E-2,7.722907034E-2
4.582738818E0,3.855001926E-2,4.193302989E-2,2.447700500E-2,6.199682859E-2
4.587714495E0,1.943898201E-2,3.181450069E-2,1.000785828E-2,3.860302712E-2
4.592690172E0,5.491375923E-3,1.243668795E-2,-3.286647797E-2,3.556728540E-2
4.597665849E0,-1.319205761E-2,2.774953842E-3,-7.537269592E-2,7.656875370E-2
4.602641526E0,-5.566668510E-2,-6.755113602E-3,-9.850597382E-2,1.133483051E-1
4.607617203E0,-6.950104237E-2,-1.909121871E-3,-9.293079376E-2,1.160610704E-1
4.612592880E0,-7.377409935E-2,-2.084600925E-2,-4.465866089E-2,8.872186782E-2
4.617568557E0,-7.305860519E-2,-6.283357739E-3,1.742744446E-2,7.537079141E-2
4.622544234E0,-8.639121056E-2,3.313630819E-3,6.472778320E-2,1.080004969E-1
4.627519911E0,-7.576799393E-2,1.747690141E-2,9.737777710E-2,1.246140540E-1
4.632495589E0,-8.902919292E-2,1.238758862E-2,9.652614594E-2,1.318974844E-1
4.637471266E0,-8.323705196E-2,2.623237669E-2,1.004390717E-1,1.330584515E-1
4.642446943E0,-9.669291973E-2,2.082073689E-2,9.010314941E-2,1.337968660E-1
4.647422620E0,-9.119725227E-2,3.915189207E-2,7.987403870E-2,1.273957281E-1
4.652398297E0,-7.150077820E-2,2.413551509E-2,7.447814941E-2,1.060277280E-1
4.657373974E0,-7.571327686E-2,2.340023220E-2,6.438064575E-2,1.021025891E-1
4.662349651E0,-6.564521790E-2,8.425533772E-3,4.961872101E-2,8.271820674E-2
4.667325328E0,-5.091261864E-2,7.872238755E-3,4.922389984E-2,7.125348549E-2
4.672301005E0,-2.685701847E-2,7.272377610E-3,5.833721161E-2,6.463294188E-2
4.677276682E0,-3.154397011E-2,1.877799630E-3,5.313682556E-2,6.182289554E-2
4.682252359E0,-3.149330616E-2,-8.277893066E-3,2.899360657E-2,4.360024161E-2
4.687228036E0,-7.700562477E-3,-4.052311182E-3,-5.193138123E-2,5.265537242E-2
4.692203714E0,-1.244366169E-2,-9.103074670E-3,-1.132135391E-1,1.142585495E-1
4.697179391E0,1.950621605E-3,-1.381114125E-2,-1.455144882E-1,1.461814586E-1
4.702155068E0,1.132273674E-2,-1.342456043E-2,-9.206199646E-2,9.372211256E-2
4.707130745E0,6.267666817E-3,-8.286342025E-3,-2.479648590E-2,2.688517853E-2
4.712106422E0,2.479517460E-2,-8.003368974E-3,2.768993378E-2,3.802087625E-2
4.717082099E0,2.881920338E-2,-1.741793752E-2,5.126571655E-2,6.133599860E-2
4.722057776E0,3.771293163E-2,-2.681159973E-2,4.138755798E-2,6.208105225E-2
4.727033453E0,5.148684978E-2,-1.713939011E-2,3.075599670E-3,5.435175901E-2
4.732009130E0,4.166042805E-2,-1.225151122E-2,-6.459236145E-3,4.390230659E-2
4.736984807E0,6.045806408E-2,-1.210173965E-2,-1.117420197E-2,6.266172998E-2
4.741960484E0,4.580962658E-2,-2.625626326E-2,-1.596450806E-3,5.282482279E-2
4.746936161E0,3.587830067E-2,-2.604734898E-2,-6.324768066E-3,4.478526028E-2
4.751911839E0,3.542566299E-2,-2.589774132E-2,-2.049636841E-2,4.843316758E-2
4.756887516E0,2.073013783E-2,-3.513766825E-2,-4.404926300E-2,6.003941968E-2
4.761863193E0,6.155848503E-3,-2.055168152E-2,-5.316066742E-2,5.732645676E-2
4.766838870E0,2.984440327E-2,-2.967631817E-2,-7.171630859E-2,8.315408099E-2
4.771814547E0,2.024960518E-2,-2.432599664E-2,-6.639766693E-2,7.355576657E-2
4.776790224E0,1.553428173E-2,-9.420990944E-3,-7.062911987E-2,7.292833162E-2
4.781765901E0,3.470301628E-2,-2.302895486E-2,-5.584621429E-2,6.966657557E-2
4.786741578E0,4.421496391E-2,-2.217577398E-2,-2.219486237E-2,5.421567947E-2
4.791717255E0,3.000736237E-2,-1.188385487E-2,2.540969849E-2,4.107700792E-2
4.796692932E0,1.591813564E-2,-6.528437138E-3,6.312370300E-2,6.542636636E-2
4.801668609E0,3.053963184E-2,-1.268759370E-3,4.352855682E-2,5.318847735E-2
4.806644286E0,2.599298954E-2,-1.514275372E-2,3.835201263E-2,4.874233651E-2
4.811619964E0,2.138197422E-2,-2.425491810E-2,1.898860931E-2,3.749742867E-2
4.816595641E0,7.208943367E-3,-1.914149523E-2,4.549980164E-3,2.095395007E-2
4.821571318E0,-2.046346664E-3,-1.412184536E-2,4.471778870E-3,1.495362356E-2
4.826546995E0,-1.626253128E-3,-4.237711430E-2,4.381179810E-3,4.263401520E-2
4.831522672E0,-1.159667969E-3,-3.715102375E-2,4.284858704E-3,3.741528310E-2
4.836498349E0,-6.448030472E-4,-3.197488189E-2,4.182815552E-3,3.225375619E-2
4.841474026E0,-1.928174496E-2,-3.153924644E-2,-6.484985352E-4,3.697202057E-2
4.846449703E0,4.922270775E-3,-2.640989423E-2,-5.432128906E-3,2.740837987E-2
4.851425380E0,-4.366278648E-3,-2.127215266E-2,-1.016998291E-2,2.397910383E-2
4.856401057E0,-8.929967880E-3,-3.042910993E-2,4.137992859E-3,3.198121390E-2
4.861376734E0,-1.820409298E-2,-2.526426315E-2,-5.415916443E-3,3.160702683E-2
4.866352411E0,-8.457064629E-3,1.314179599E-2,-1.488494873E-2,2.158217882E-2
4.871328089E0,-8.388161659E-3,3.222101927E-2,-5.268096924E-3,3.370917062E-2
4.876303766E0,-2.261531353E-2,3.598704934E-3,-9.968757629E-3,2.497557230E-2
4.881279443E0,-3.187298775E-2,-2.953359485E-2,9.099006653E-3,4.439496024E-2
4.886255120E0,-3.630745411E-2,-2.438901365E-2,2.325916290E-2,4.953830709E-2
4.891230797E0,-2.160871029E-2,-1.933842897E-2,1.829624176E-2,3.428795208E-2
4.896206474E0,-1.653063297E-2,-9.626179934E-3,3.878593445E-3,1.951841832E-2
4.901182151E0,-2.568793297E-2,-9.447112679E-3,-9.298324585E-4,2.738580703E-2
4.906157828E0,-4.431712627E-2,2.274662256E-4,3.805160522E-3,4.448076740E-2
4.911133505E0,-2.490413189E-2,-4.430472851E-3,8.513450623E-3,2.668939333E-2
4.916109182E0,-2.939665318E-2,5.253449082E-3,-1.064300537E-3,2.988134336E-2
4.921084859E0,-2.905094624E-2,-4.143714905E-3,-5.820274353E-3,2.991660816E-2
4.926060536E0,-2.385962009E-2,8.468478918E-4,-1.054954529E-2,2.610156180E-2
4.931036214E0,-2.810513973E-2,-8.404910564E-3,-1.008033752E-3,2.935230030E-2
4.936011891E0,-2.281820774E-2,-8.082553744E-3,2.744770050E-2,3.659746634E-2
4.940987568E0,-1.282691956E-2,6.431475282E-3,2.242755890E-2,2.662497207E-2
4.945963245E0,-1.721549034E-2,6.630197167E-3,1.270675659E-2,2.240076528E-2
4.950938922E0,-1.206934452E-2,6.769746542E-3,-1.680374146E-3,1.393994988E-2
4.955914599E0,-3.540706635E-2,-2.531334758E-3,3.038406372E-3,3.562723559E-2
4.960890276E0,-1.576268673E-2,2.490594983E-3,2.195739746E-2,2.714392491E-2
4.965865953E0,-1.517248154E-2,7.464319468E-3,3.595733643E-2,3.973474933E-2
4.970841630E0,-3.363347054E-2,7.603317499E-3,4.510021210E-2,5.677191126E-2
4.975817307E0,-4.404544830E-3,-6.606638432E-3,4.466533661E-2,4.536562554E-2
4.980792984E0,6.860494614E-4,2.672930062E-2,2.525997162E-2,3.678304421E-2
4.985768661E0,-3.709435463E-3,4.067845643E-2,2.500724792E-2,4.789424994E-2
4.990744339E0,-8.068203926E-3,-1.212111115E-2,2.001094818E-2,2.474783419E-2
4.995720016E0,-1.708912849E-2,-3.603452444E-2,1.505088806E-2,4.262692219E-2
5.000695693E0,-6.888389587E-3,-5.494265258E-2,-2.787494659E-2,6.199320633E-2
5.005671370E0,-6.167411804E-3,-5.934536457E-2,-7.045841217E-2,9.232712012E-2
5.010647047E0,-1.969909668E-2,-6.355157495E-2,-7.945156097E-2,1.036311132E-1
5.015622724E0,-1.417303085E-2,-6.283339858E-2,-4.563045502E-2,7.893699517E-2
5.020598401E0,-1.354265213E-2,-4.777969420E-2,-1.208114624E-2,5.111024065E-2
5.025574078E0,-3.521800041E-3,-2.330960333E-2,5.918884277E-2,6.371075099E-2
5.030549755E0,-3.028988838E-3,-3.900527954E-3,5.863285065E-2,5.884046284E-2
5.035525432E0,3.539645672E-2,1.534682512E-2,4.859161377E-2,6.204497658E-2
5.040501109E0,5.445981026E-2,2.022051811E-2,1.964569092E-2,6.132449313E-2
5.045476786E0,4.477214813E-2,2.504728734E-2,-1.379489899E-2,5.312448672E-2
5.050452464E0,3.981137276E-2,2.988499403E-2,-3.270053864E-2,5.955991518E-2
5.055428141E0,2.999222279E-2,1.097838581E-2,-5.617904663E-2,6.462308924E-2
5.060403818E0,3.919994831E-2,1.601031423E-2,-6.521129608E-2,7.775267999E-2
5.065379495E0,3.873264790E-2,-7.445886731E-3,-5.516242981E-2,6.781263086E-2
5.070355172E0,4.306995869E-2,-1.156556606E-2,-3.571033478E-2,5.713152956E-2
5.075330849E0,4.272723198E-2,-1.101741195E-2,4.055213928E-2,5.992892222E-2
5.080306526E0,9.199857712E-3,3.714188933E-3,2.595138550E-2,2.778321419E-2
5.085282203E0,-1.016175747E-2,-5.413129926E-3,-9.769821167E-2,9.837430485E-2
5.090257880E0,-3.446853161E-2,-1.405528188E-2,-2.915096283E-1,2.938766646E-1
5.095233557E0,-4.917907715E-2,-2.660076320E-2,-4.647169113E-1,4.680683603E-1
5.100209234E0,-6.328105927E-3,-9.510010481E-3,-2.804193497E-1,2.806519141E-1
5.105184911E0,1.318871975E-2,-6.494835019E-3,1.064262390E-1,1.074368166E-1
5.110160589E0,2.355670929E-2,1.962475479E-2,3.048076630E-1,3.063458192E-1
5.115136266E0,1.474237442E-2,4.445371032E-2,4.018516541E-1,4.045716523E-1
5.120111943E0,-4.110097885E-3,5.846041441E-2,4.222106934E-1,4.262585865E-1
5.125087620E0,4.866003990E-3,6.684082747E-2,3.095579147E-1,3.167293431E-1
5.130063297E0,8.505940437E-3,3.655543923E-2,2.169141769E-1,2.201372556E-1
5.135038974E0,3.100383282E-2,1.062424481E-2,1.250696182E-1,1.292923881E-1
5.140014651E0,3.421580791E-2,-2.038997412E-2,-1.369295120E-1,1.426049221E-1
5.144990328E0,4.654097557E-2,-5.120298266E-2,-3.872032166E-1,3.933371820E-1
5.149966005E0,3.946197033E-2,-6.219525635E-2,-4.311780930E-1,4.374243304E-1
5.154941682E0,7.043075562E-2,-4.399047792E-2,-2.611169815E-1,2.740031597E-1
5.159917359E0,5.906808376E-2,-1.596719027E-2,-8.306884766E-2,1.031718137E-1
5.164893036E0,5.831980705E-2,1.667334139E-2,3.163528442E-2,6.841046286E-2
5.169868714E0,5.390167236E-2,2.530576289E-2,4.553127289E-2,7.495911372E-2
5.174844391E0,4.558885098E-2,3.412826359E-2,2.596378326E-2,6.258753670E-2
5.179820068E0,2.825748920E-2,2.434341609E-2,1.749992371E-3,3.733831915E-2
5.184795745E0,-2.676403522E-2,2.459733188E-2,-6.502723694E-2,7.449754265E-2
5.189771422E0,-4.359579086E-2,1.122358441E-2,-1.407260895E-1,1.477511221E-1
5.194747099E0,-8.454012871E-2,3.265723586E-3,-1.635084152E-1,1.840997017E-1
5.199722776E0,-1.209039688E-1,5.699247122E-4,-1.338138580E-1,1.803447895E-1
5.204698453E0,-8.640062809E-2,-6.756216288E-3,-5.680084229E-2,1.036197408E-1
5.209674130E0,-1.097295284E-1,-4.575490952E-3,2.913761139E-2,1.136244029E-1
5.214649807E0,-9.992885590E-2,-7.429599762E-3,7.641696930E-2,1.260179685E-1
5.219625484E0,-9.991145134E-2,-1.991017163E-2,1.185817719E-1,1.563340963E-1
5.224601161E0,-1.092892885E-1,-2.299407125E-2,1.366453171E-1,1.764789466E-1
5.229576839E0,-8.994650841E-2,-2.139320970E-2,1.307983398E-1,1.601756832E-1
5.234552516E0,-1.039034128E-1,-2.470110357E-2,1.297397614E-1,1.680430581E-1
5.239528193E0,-6.566500664E-2,-3.297916055E-2,1.002235413E-1,1.242750029E-1
5.244503870E0,-6.119048595E-2,-2.244357765E-2,8.522891998E-2,1.072937955E-1
5.249479547E0,-4.730832577E-2,-1.694248617E-2,5.612373352E-2,7.533258915E-2
5.254455224E0,-5.051016808E-3,-1.164066792E-2,4.625797272E-2,4.796684230E-2
5.259430901E0,1.326620579E-2,-1.640856266E-3,5.070209503E-2,5.243459799E-2
5.264406578E0,3.623139858E-2,1.286433637E-2,4.560852051E-2,5.965184437E-2
5.269382255E0,2.591919899E-2,3.455013037E-3,4.053974152E-2,4.824119229E-2
5.274357932E0,2.054262161E-2,-1.223370433E-3,5.924510956E-2,6.271745327E-2
5.279333609E0,1.531410217E-2,3.525570035E-3,5.404186249E-2,5.628031868E-2
5.284309286E0,2.457821369E-2,3.390446305E-3,4.885768890E-2,5.479650974E-2
5.289284964E0,5.296373367E-2,-6.240561604E-3,2.469730377E-2,5.877123878E-2
5.294260641E0,4.797470570E-2,-1.588729024E-2,1.497364044E-2,5.270852195E-2
5.299236318E0,4.777574539E-2,-2.545364201E-2,-1.366329193E-2,5.583095276E-2
5.304211995E0,5.707442760E-2,-2.538575232E-2,-2.306842804E-2,6.658888105E-2
5.309187672E0,4.250192642E-2,-2.536958456E-2,-3.238773346E-2,5.915230214E-2
5.314163349E0,3.279936314E-2,-3.005087376E-2,-2.738571167E-2,5.223820862E-2
5.319139026E0,3.742420673E-2,-3.944800794E-2,-1.292800903E-2,5.589141256E-2
5.324114703E0,1.826691628E-2,-2.976647019E-2,-3.339767456E-3,3.508385704E-2
5.329090380E0,8.817434311E-3,-3.430877626E-2,1.413345337E-3,3.545189447E-2
5.334066057E0,1.844179630E-2,-1.982560754E-2,-3.370285034E-3,2.728577260E-2
5.339041734E0,2.803719044E-2,-1.485778391E-2,-3.374099731E-3,3.190959635E-2
5.344017411E0,1.386225224E-2,-3.362905979E-2,1.362800598E-3,3.639962809E-2
5.348993089E0,2.349579334E-2,-2.844390273E-2,1.081466675E-2,3.844560995E-2
5.353968766E0,1.895701885E-2,-2.805043757E-2,2.491664886E-2,4.203611545E-2
5.358944443E0,1.920652390E-2,-3.242145479E-2,1.515865326E-2,4.061805090E-2
5.363920120E0,4.314625263E-2,-2.716308832E-2,5.486488342E-3,5.127898242E-2
5.368895797E0,4.304170609E-2,-2.679936588E-2,6.580352783E-4,5.070727250E-2
5.373871474E0,3.313493729E-2,-2.654734254E-2,-5.632400513E-2,7.053424004E-2
5.378847151E0,3.709781170E-2,2.566753328E-2,-1.460075378E-1,1.528177706E-1
5.383822828E0,4.092741013E-2,6.258234382E-3,-1.969451904E-1,2.012501588E-1
5.388798505E0,6.737232208E-3,-2.212829888E-2,-1.857337952E-1,1.871686260E-1
5.393774182E0,-3.324389458E-3,-7.075250149E-3,-8.916473389E-2,8.950676231E-2
5.398749859E0,2.483749390E-2,7.967308164E-3,2.557277679E-2,3.652870126E-2
5.403725536E0,2.932989597E-2,3.681683540E-2,1.108303070E-1,1.204121220E-1
5.408701214E0,3.884124756E-2,6.965671480E-2,1.051282883E-1,1.319570287E-1
5.413676891E0,3.877544403E-2,6.388330460E-2,7.098865509E-2,1.030727938E-1
5.418652568E0,2.921319008E-2,4.860982299E-2,8.644104004E-3,5.736763809E-2
5.423628245E0,2.458047867E-2,2.877263725E-2,-1.520633698E-2,4.078354166E-2
5.428603922E0,2.019095421E-2,1.400271058E-2,-1.039505005E-2,2.667972266E-2
5.433579599E0,-2.215015888E-2,-4.906803370E-4,-3.886795044E-2,4.473910903E-2
5.438555276E0,-4.060137272E-2,-1.010839641E-2,-7.182598114E-2,8.312414036E-2
5.443530953E0,-7.340002060E-2,-1.494860649E-2,-8.548259735E-2,1.136586922E-1
5.448506630E0,-6.809079647E-2,-1.025146246E-2,-4.677295685E-2,8.324156737E-2
5.453482307E0,-7.702124119E-2,3.858774900E-3,-3.642082214E-3,7.720379849E-2
5.458457984E0,-9.532403946E-2,8.360788226E-3,3.912258148E-2,1.033786809E-1
5.463433661E0,-8.477878571E-2,2.701966465E-2,7.675838470E-2,1.175132095E-1
5.468409339E0,-8.366596699E-2,3.593008220E-2,9.032058716E-2,1.282527711E-1
5.473385016E0,-8.736312389E-2,3.522442281E-2,8.953189850E-2,1.299578248E-1
5.478360693E0,-1.054282188E-1,4.402160645E-2,6.502628326E-2,1.314588478E-1
5.483336370E0,-1.045032740E-1,3.380893171E-2,7.398223877E-2,1.324286592E-1
5.488312047E0,-8.939278126E-2,3.318466246E-2,7.812213898E-2,1.232694600E-1
5.493287724E0,-6.970989704E-2,2.770842612E-2,7.748699188E-2,1.078492491E-1
5.498263401E0,-6.928849220E-2,2.223294973E-2,5.312824249E-2,9.009888654E-2
5.503239078E0,-7.377254963E-2,1.205456257E-2,2.424240112E-2,7.858368514E-2
5.508214755E0,-4.033362865E-2,1.140682399E-2,1.460552216E-2,4.438736883E-2
5.513190432E0,-1.672148705E-2,1.076446474E-2,5.055427551E-3,2.051923921E-2
5.518166109E0,-1.224792004E-2,3.381249309E-2,-4.420280457E-3,3.623306657E-2
5.523141786E0,-3.010869026E-3,2.347382903E-2,-1.857280731E-2,3.008380217E-2
5.528117464E0,-7.991909981E-3,-1.512882113E-2,-7.061100006E-2,7.265442302E-2
5.533093141E0,-2.222573757E-2,-1.985064149E-2,-9.850502014E-2,1.029138979E-1
5.538068818E0,-7.646441460E-3,-2.901950479E-2,-8.820915222E-2,9.317432190E-2
5.543044495E0,1.145756245E-2,-1.906681061E-2,-5.424499512E-2,5.862881970E-2
5.548020172E0,1.590120792E-2,-2.819108963E-2,-2.527999878E-2,4.106901857E-2
5.552995849E0,2.960002422E-2,-1.829646528E-2,-1.278877258E-3,3.482179781E-2
5.557971526E0,1.949453354E-2,-1.329027116E-2,8.271217346E-3,2.500162358E-2
5.562947203E0,3.811657429E-2,-1.781646907E-2,8.226394653E-3,4.287159170E-2
5.567922880E0,4.729104042E-2,1.437544823E-3,3.407478333E-3,4.743542925E-2
5.572898557E0,4.699540138E-2,1.479640603E-3,-1.382827759E-3,4.703901891E-2
5.577874234E0,5.145072937E-2,1.521378756E-3,-1.088142395E-2,5.261081194E-2
5.582849911E0,5.101919174E-2,-3.243193030E-3,-2.028751373E-2,5.500054037E-2
5.587825589E0,3.154706955E-2,-7.974401116E-3,-2.011203766E-2,3.825314012E-2
5.592801266E0,5.017411709E-2,-1.731240749E-2,-2.468204498E-2,5.853515887E-2
5.597776943E0,3.550875187E-2,-3.137223423E-2,-3.397464752E-2,5.830407545E-2
5.602752620E0,4.475927353E-2,-2.152125537E-2,-2.420234680E-2,5.524772023E-2
5.607728297E0,5.403387547E-2,-2.604268491E-2,-2.402019501E-2,6.461308616E-2
5.612703974E0,4.908800125E-2,-4.007455707E-2,-1.435470581E-2,6.497429930E-2
5.617679651E0,2.999007702E-2,-3.980149329E-2,-9.523391724E-3,5.073715185E-2
5.622655328E0,3.479373455E-2,-2.048556507E-2,-2.847576141E-2,4.940780635E-2
5.627631005E0,2.541410923E-2,-3.931860626E-2,-1.879119873E-2,5.044738740E-2
5.632606682E0,3.510665894E-2,-2.465292811E-2,-2.818393707E-2,5.132814701E-2
5.637582359E0,3.991770744E-2,-1.010312140E-2,-1.375007629E-2,4.341153104E-2
5.642558036E0,3.039205074E-2,-9.920075536E-3,5.702972412E-4,3.197514482E-2
5.647533714E0,2.079141140E-2,-1.933147013E-2,5.464553833E-4,2.839519570E-2
5.652509391E0,1.602029800E-2,-1.447643340E-2,-4.224777222E-3,2.200149574E-2
5.657485068E0,6.488204002E-3,-1.915250719E-2,5.474090576E-4,2.022906274E-2
5.662460745E0,-3.014564514E-3,-3.804145753E-2,5.286216736E-3,3.852511100E-2
5.667436422E0,1.135468483E-2,-2.827566862E-2,4.825592041E-4,3.047417213E-2
5.672412099E0,-2.886176109E-3,-4.234009981E-2,-1.377868652E-2,4.461912445E-2
5.677387776E0,-7.562279701E-3,-4.193954170E-2,-1.367092133E-2,4.475496980E-2
5.682363453E0,-1.214933395E-2,-4.158711433E-2,1.017284393E-2,4.450372061E-2
5.687339130E0,-1.200067997E-2,-4.123762250E-2,1.483058929E-2,4.543681556E-2
5.692314807E0,-3.084635735E-2,-2.190339565E-2,1.945018768E-2,4.253899744E-2
5.697290484E0,-3.534162045E-2,-2.171793580E-2,5.043029785E-3,4.178673259E-2
5.702266161E0,-3.030145168E-2,-1.204334199E-2,-9.244918823E-3,3.389230863E-2
5.707241839E0,-1.100659370E-2,-7.146745920E-3,-1.867103577E-2,2.282167082E-2
5.712217516E0,-2.511298656E-2,1.190975308E-2,-1.377296448E-2,3.101933048E-2
5.717193193E0,-1.060986519E-2,2.140636742E-2,-2.791118622E-2,3.674011597E-2
5.722168870E0,-1.047325134E-2,1.188100874E-2,-3.718376160E-2,4.041632701E-2
5.727144547E0,-7.895231247E-4,1.673163474E-2,-1.789569855E-2,2.451177216E-2
5.732120224E0,-1.023173332E-2,1.204484701E-2,-1.300811768E-2,2.046894799E-2
5.737095901E0,-5.298495293E-3,1.209446788E-2,-3.417968750E-3,1.363938107E-2
5.742071578E0,-5.153894424E-3,1.693700254E-2,-3.405570984E-3,1.802838308E-2
5.747047255E0,-4.908204079E-3,2.745181322E-3,1.558780670E-2,1.657124635E-2
5.752022932E0,-3.305327892E-2,-1.780226827E-3,2.491188049E-2,4.142813349E-2
5.756998609E0,-2.292466164E-2,-6.370201707E-3,4.365062714E-2,4.971415121E-2
5.761974286E0,-2.712500095E-2,-1.097935438E-2,3.374481201E-2,4.466569419E-2
5.766949964E0,-2.649068832E-2,-6.104245782E-3,4.290962219E-2,5.079620125E-2
5.771925641E0,-4.960405827E-2,-1.556637883E-2,2.825641632E-2,5.917178221E-2
5.776901318E0,-2.973723412E-2,-2.494966984E-2,2.796459198E-2,4.784148328E-2
5.781876995E0,-5.900859833E-4,3.222425282E-2,2.768135071E-2,4.248538394E-2
5.786852672E0,-1.447033882E-2,2.242381871E-2,3.664970398E-3,2.693789819E-2
5.791828349E0,-4.722893238E-2,-1.098625362E-2,8.338928223E-3,4.920170268E-2
5.796804026E0,-4.172766209E-2,-1.556944847E-2,1.297283173E-2,4.638857480E-2
5.801779703E0,-1.253175735E-2,-2.479922771E-2,2.231502533E-2,3.563715748E-2
5.806755380E0,-4.061317444E-2,-1.500290632E-2,2.683830261E-2,5.093929351E-2
5.811731057E0,-1.622712612E-2,-5.339384079E-3,3.132438660E-2,3.567976794E-2
5.816706734E0,-1.583790779E-2,-5.355700850E-3,7.290840149E-3,1.823949574E-2
5.821682411E0,-1.205444336E-3,-1.017780602E-2,-1.179313660E-2,1.562430486E-2
5.826658089E0,-8.893013000E-4,-5.462720990E-3,-3.072357178E-2,3.121810437E-2
5.831633766E0,-4.734992981E-4,-1.023276150E-2,-4.001331329E-2,4.130373894E-2
5.836609443E0,4.687309265E-3,-2.440890670E-2,-4.922676086E-2,5.514562158E-2
5.841585120E0,-9.342312813E-3,-1.002705097E-2,-1.085853577E-2,1.748508962E-2
5.846560797E0,-9.112834930E-3,4.241228104E-3,3.195095062E-2,3.349470140E-2
5.851536474E0,-9.088873863E-3,8.785024285E-3,4.593944550E-2,4.764679351E-2
5.856512151E0,-9.117245674E-3,1.789228618E-2,6.931781769E-2,7.216798405E-2
5.861487828E0,1.000213623E-2,2.692364156E-2,4.974651337E-2,5.744249991E-2
5.866463505E0,5.270719528E-3,3.118236363E-2,2.083396912E-2,3.787049716E-2
5.871439182E0,5.377411842E-3,2.126868069E-2,6.400108337E-3,2.285245552E-2
5.876414859E0,1.487791538E-2,1.153993607E-2,-1.740074158E-2,2.563802446E-2
5.881390536E0,9.848237038E-3,-2.849966288E-3,-4.572677612E-2,4.686201164E-2
5.886366214E0,3.784418106E-2,-1.711994410E-2,-7.853317261E-2,8.884105878E-2
5.891341891E0,3.701353073E-2,-3.591720760E-2,-8.731365204E-2,1.014086835E-1
5.896317568E0,4.104161263E-2,-3.077046573E-2,-3.430461884E-2,6.170933804E-2
5.901293245E0,2.629780769E-2,-3.516362607E-2,1.348304749E-2,4.593308021E-2
5.906268922E0,1.652956009E-2,-3.008690476E-2,4.661560059E-2,5.789181646E-2
5.911244599E0,-7.607221603E-3,-2.985212207E-2,-5.345916748E-2,6.170009400E-2
5.916220276E0,-3.180062771E-2,-3.409948945E-2,-2.286491394E-1,2.333548458E-1
5.921195953E0,-5.579328537E-2,-3.758932650E-2,-4.451313019E-1,4.501863215E-1
5.926171630E0,-1.269900799E-2,-2.092559636E-2,-3.369827271E-1,3.378705428E-1
5.931147307E0,1.635384560E-2,-8.849471807E-3,8.359241486E-2,8.563558395E-2
5.936122984E0,1.682603359E-2,1.666247845E-2,3.819437027E-1,3.826770775E-1
5.941098661E0,3.138768673E-2,5.502580106E-2,4.879102707E-1,4.920055466E-1
5.946074339E0,2.642405033E-2,6.825935841E-2,4.743518829E-1,4.799659147E-1
5.951050016E0,1.629352570E-2,6.651662290E-2,2.852802277E-1,2.933849832E-1
5.956025693E0,3.432917595E-2,3.113919497E-2,1.500768661E-1,1.570707087E-1
5.961001370E0,4.230678082E-2,4.945486784E-3,6.829643250E-2,8.049052263E-2
5.965977047E0,4.511213303E-2,-1.700440049E-2,-1.219587326E-1,1.311418569E-1
5.970952724E0,6.647884846E-2,-3.422719240E-2,-3.675556183E-1,3.750840846E-1
5.975928401E0,5.422413349E-2,-2.700009942E-2,-4.401435852E-1,4.442922885E-1
5.980904078E0,7.561862469E-2,-9.619206190E-3,-3.079919815E-1,3.172849921E-1
5.985879755E0,6.900799274E-2,8.134976029E-3,-1.200532913E-1,1.387121972E-1
5.990855432E0,8.246695995E-2,3.065596521E-2,2.820110321E-2,9.238987991E-2
5.995831109E0,9.213757515E-2,3.400163352E-2,9.436225891E-2,1.361972090E-1
6.000806786E0,5.511081219E-2,4.222753644E-2,7.913589478E-2,1.052751457E-1
6.005782464E0,2.370369434E-2,5.079378188E-2,3.546714783E-2,6.633092776E-2
6.010758141E0,-3.098070621E-2,4.081222415E-2,-3.636360168E-2,6.283114932E-2
6.015733818E0,-6.631636620E-2,1.727554202E-2,-1.075954437E-1,1.275659997E-1
6.020709495E0,-9.231996536E-2,8.736491203E-3,-1.686925888E-1,1.925006281E-1
6.025685172E0,-1.140211821E-1,-4.032567143E-3,-1.817226410E-1,2.145698250E-1
6.030660849E0,-1.362572908E-1,-1.174248755E-2,-1.328287125E-1,1.906499467E-1
6.035636526E0,-1.210323572E-1,-9.808003902E-3,-4.151916504E-2,1.283310933E-1
6.040612203E0,-1.015917063E-1,-1.275928319E-2,2.059173584E-2,1.044399046E-1
6.045587880E0,-9.201323986E-2,-6.297424436E-3,7.271480560E-2,1.174458889E-1
6.050563557E0,-1.109538078E-1,-9.545966983E-3,9.116172791E-2,1.439178015E-1
6.055539234E0,-9.159612656E-2,-2.230913937E-2,1.331787109E-1,1.631689834E-1
6.060514911E0,-1.007376909E-1,-2.567327023E-2,1.463413239E-1,1.795076105E-1
6.065490589E0,-1.193512678E-1,-4.345922172E-2,1.546554565E-1,2.001293065E-1
6.070466266E0,-9.047806263E-2,-2.821525931E-2,1.391839981E-1,1.683881409E-1
6.075441943E0,-8.104526997E-2,-3.223939240E-2,1.333665848E-1,1.593560797E-1
6.080417620E0,-4.330241680E-2,-2.698868513E-2,1.228666306E-1,1.330402094E-1
6.085393297E0,-5.925297737E-3,-7.740825415E-3,1.219606400E-1,1.223496107E-1
6.090368974E0,-1.945853233E-3,1.696154475E-3,1.020536423E-1,1.020862830E-1
6.095344651E0,3.064501286E-2,1.352831721E-3,9.179401398E-2,9.678371748E-2
6.100320328E0,4.892325401E-2,5.658492446E-3,7.684898376E-2,9.127578883E-2
6.105296005E0,4.350948334E-2,1.463817060E-2,6.675243378E-2,8.101381730E-2
6.110271682E0,4.314410686E-2,3.299511969E-2,4.246425629E-2,6.894421616E-2
6.115247359E0,5.238115788E-2,3.220507503E-2,8.869171143E-3,6.212579782E-2
6.120223036E0,7.119071484E-2,3.622756898E-2,-1.022052765E-2,8.052958350E-2
6.125198714E0,6.604874134E-2,3.072585166E-2,8.842468262E-3,7.338053855E-2
6.130174391E0,7.514393330E-2,1.092214882E-2,-5.484580994E-3,7.613136459E-2
6.135150068E0,5.551886559E-2,-1.351620257E-2,-2.442073822E-2,6.214020134E-2
6.140125745E0,4.545199871E-2,-3.300237656E-2,-6.692790985E-2,8.737497446E-2
6.145101422E0,4.031991959E-2,-4.747530818E-2,-8.060550690E-2,1.018668177E-1
6.150077099E0,1.158821583E-2,-4.741595685E-2,-6.569290161E-2,8.184202486E-2
6.155052776E0,6.939888000E-3,-5.194580555E-2,-5.092048645E-2,7.307136717E-2
6.160028453E0,1.182723045E-2,-6.108404696E-2,-3.627300262E-2,7.201996176E-2
6.165004130E0,1.187527180E-2,-4.630763829E-2,-3.124141693E-2,5.710906737E-2
6.169979807E0,7.071137428E-3,-5.069322884E-2,-7.243156433E-3,5.169398176E-2
6.174955484E0,3.549540043E-2,-3.604824841E-2,2.316474915E-3,5.064351608E-2
6.179931161E0,2.104949951E-2,-4.052564502E-2,-7.210731506E-3,4.623206661E-2
6.184906839E0,4.001569748E-2,-3.072652221E-2,-7.168769836E-3,5.095847793E-2
6.189882516E0,2.548217773E-2,-2.570641041E-2,-7.114410400E-3,3.688869411E-2
6.194858193E0,2.046525478E-2,-3.023143113E-2,-7.048606873E-3,3.718129826E-2
6.199833870E0,1.982939243E-2,-2.532407641E-2,-3.067302704E-2,4.444488990E-2
6.204809547E0,9.190201759E-3,-3.015920520E-2,-1.110153198E-1,1.154055402E-1
6.209785224E0,7.983446121E-3,-2.540585399E-2,-1.906700134E-1,1.925207699E-1
6.214760901E0,2.089738846E-3,-2.033410966E-2,-1.557102203E-1,1.570462217E-1
6.219736578E0,3.449010849E-2,-5.507186055E-3,-2.610969543E-2,4.360748649E-2
6.224712255E0,9.945154190E-3,4.498794675E-3,1.023721695E-1,1.029524469E-1
6.229687932E0,2.384722233E-2,1.892061532E-2,1.347866058E-1,1.381814344E-1
6.234663609E0,2.343916893E-2,3.756165504E-2,1.146993637E-1,1.229480240E-1
6.239639286E0,4.197728634E-2,4.144382477E-2,5.205631256E-2,7.867364779E-2
6.244614964E0,3.651809692E-2,2.143613994E-2,1.369190216E-2,4.450334463E-2
6.249590641E0,3.610777855E-2,1.120083034E-2,4.105567932E-3,3.802743694E-2
6.254566318E0,1.216292381E-2,-1.784089208E-2,-1.492500305E-2,2.624861638E-2
6.259541995E0,-6.630539894E-3,-1.324130595E-2,-5.756855011E-2,5.944269681E-2
6.264517672E0,-1.117515564E-2,-2.757173777E-2,-7.134819031E-2,7.730232265E-2
6.269493349E0,-5.862402916E-2,-1.803387702E-2,-9.923458099E-2,1.166597599E-1
6.274469026E0,-6.779181957E-2,-2.282099426E-2,-7.938957214E-2,1.068608101E-1
6.279444703E0,-5.788815022E-2,-1.802641153E-2,-4.546546936E-2,7.578323266E-2
6.284420380E0,-6.695985794E-2,1.031175256E-3,2.140045166E-2,7.030409113E-2
6.289396057E0,-6.620526314E-2,-3.850981593E-3,5.918788910E-2,8.888854337E-2
6.294371734E0,-5.580651760E-2,1.014810801E-2,9.189605713E-2,1.079918368E-1
6.299347411E0,-6.923687458E-2,3.347635269E-2,1.053390503E-1,1.304251759E-1
6.304323089E0,-6.345808506E-2,2.801054716E-2,9.016799927E-2,1.137619770E-1
6.309298766E0,-7.207727432E-2,2.735136449E-2,9.413051605E-2,1.216708045E-1
6.314274443E0,-8.072578907E-2,2.664016187E-2,7.907962799E-2,1.161031387E-1
6.319250120E0,-7.521128654E-2,3.538697958E-2,6.417465210E-2,1.050112466E-1
6.324225797E0,-6.989622116E-2,3.926122189E-2,6.840705872E-2,1.053871480E-1
6.329201474E0,-6.462550163E-2,3.835460544E-2,6.785583496E-2,1.012518916E-1
6.334177151E0,-5.944991112E-2,2.795849741E-2,3.407669067E-2,7.400804251E-2
6.339152828E0,-3.527235985E-2,2.244867384E-2,1.956558228E-2,4.616161107E-2
6.344128505E0,-4.933536053E-2,1.218506694E-2,2.417659760E-2,5.627576322E-2
6.349104182E0,-1.589739323E-2,1.144650578E-2,9.769439697E-3,2.189044445E-2
6.354079859E0,-2.062499523E-2,-3.473922610E-3,-3.777122498E-2,4.317550235E-2
6.359055536E0,3.280162811E-3,-3.819838166E-3,-1.086750031E-1,1.087915756E-1
6.364031214E0,2.698624134E-2,8.926391602E-4,-1.457548141E-1,1.482346784E-1
6.369006891E0,2.200365067E-2,-1.322352886E-2,-1.160507202E-1,1.188561821E-1
6.373982568E0,2.640712261E-2,-8.183225989E-3,-4.384040833E-2,5.182936151E-2
6.378958245E0,4.001522064E-2,-2.217890322E-2,8.805274963E-3,4.659028330E-2
6.383933922E0,3.451704979E-2,-2.192106843E-2,3.727340698E-2,5.532871619E-2
6.388909599E0,4.351484776E-2,-1.221950352E-2,2.749156952E-2,5.290221769E-2
6.393885276E0,5.264329910E-2,-2.656266093E-3,2.726459503E-2,5.934417269E-2
6.398860953E0,3.335809708E-2,-1.211555302E-2,1.752185822E-2,3.957985322E-2
6.403836630E0,4.267561436E-2,-7.416620851E-3,3.120422363E-3,4.342754151E-2
6.408812307E0,3.287041187E-2,-1.225385070E-2,3.091812134E-3,3.521619139E-2
6.413787984E0,2.784526348E-2,-7.560104132E-3,-6.426811218E-3,2.956040892E-2
6.418763661E0,2.291321754E-2,-1.245360076E-2,-3.011798859E-2,3.983969060E-2
6.423739339E0,3.226661682E-2,-1.724886894E-2,-4.886341095E-2,6.104335321E-2
6.428715016E0,3.694808483E-2,-3.135402501E-2,-4.848098755E-2,6.854664113E-2
6.433690693E0,3.219580650E-2,-2.159912884E-2,-3.861808777E-2,5.472155906E-2
6.438666370E0,1.323878765E-2,-1.662923396E-2,-3.833484650E-2,4.383329073E-2
6.443642047E0,3.884315491E-3,-1.169440150E-2,-5.229282379E-2,5.372509985E-2
6.448617724E0,2.299678326E-2,-6.749570370E-3,-4.712963104E-2,5.287353650E-2
6.453593401E0,1.815617085E-2,2.953693271E-3,-2.775764465E-2,3.329951472E-2
6.458569078E0,1.805424690E-2,7.770121098E-3,1.045417786E-2,2.226253462E-2
6.463544755E0,2.755153179E-2,3.055751324E-3,3.408908844E-2,4.393734711E-2
6.468520432E0,1.322615147E-2,-6.361514330E-3,3.378391266E-2,3.683412415E-2
6.473496109E0,3.225958347E-2,3.242567182E-3,2.398586273E-2,4.033009520E-2
6.478471786E0,8.243322372E-3,-1.102069020E-2,4.792213440E-3,1.457303283E-2
6.483447464E0,1.286721230E-2,-2.516508102E-2,-4.737854004E-3,2.865822248E-2
6.488423141E0,1.750361919E-2,-2.024875581E-2,4.800796509E-3,2.719258068E-2
6.493398818E0,1.265561581E-2,-2.017304301E-2,2.375125885E-2,3.363389024E-2
6.498374495E0,1.749730110E-2,-1.059460640E-2,2.353096008E-2,3.117863552E-2
6.503350172E0,-1.341581345E-3,-2.009002864E-2,2.804756165E-2,3.452643633E-2
6.508325849E0,-1.028418541E-3,-5.770146847E-3,-7.123947144E-4,5.904214220E-3
6.513301526E0,-2.456355095E-2,-5.911067128E-3,-7.276535034E-4,2.527524934E-2
6.518277203E0,-1.466310024E-2,-1.251161098E-3,4.005432129E-3,1.525173431E-2
6.523252880E0,-1.434218884E-2,3.318756819E-3,8.699417114E-3,1.709948495E-2
6.528228557E0,-3.312134743E-2,1.265653968E-2,-5.627632141E-3,3.590100132E-2
6.533204234E0,-4.259109497E-3,2.871394157E-3,-8.401870728E-4,5.204885439E-3
6.538179911E0,-1.842486858E-2,7.413268089E-3,8.662223816E-3,2.166717442E-2
6.543155589E0,5.615472794E-3,-2.315580845E-3,-9.212493896E-4,6.143626761E-3
6.548131266E0,1.016736031E-3,7.075488567E-3,3.812789917E-3,8.101460212E-3
6.553106943E0,1.152634621E-3,-2.548262477E-3,-9.832382202E-4,2.964618967E-3
6.558082620E0,-8.158445358E-3,2.102553844E-3,-1.524257660E-2,1.741600140E-2
6.563058297E0,-1.259231567E-2,6.765753031E-3,-1.039600372E-2,1.767537048E-2
6.568033974E0,-2.742886543E-3,-7.559090853E-3,-5.591392517E-3,9.794230515E-3
6.573009651E0,-2.146756649E-2,-2.713099122E-3,-8.277893066E-4,2.165415787E-2
6.577985328E0,-3.533756733E-2,2.137348056E-3,2.764415741E-2,4.491671582E-2
6.582961005E0,-3.489768505E-2,-1.214896142E-2,1.789951324E-2,4.105896078E-2
6.587936682E0,-2.021491528E-2,-1.212817430E-2,2.723121643E-2,3.601769787E-2
6.592912359E0,-3.409326077E-2,-2.166204154E-2,2.698230743E-2,4.857611952E-2
6.597888036E0,-1.931393147E-2,-2.641910315E-2,7.737159729E-3,3.362827085E-2
6.602863714E0,-2.829778194E-2,-2.628572285E-2,1.712799072E-2,4.225010953E-2
6.607839391E0,-3.235495090E-2,-1.666277647E-2,1.218318939E-2,3.837865385E-2
6.612815068E0,-2.213180065E-2,-1.662330329E-2,2.627277374E-2,3.816293297E-2
6.617790745E0,-3.098785877E-2,-1.178449392E-2,2.256393433E-3,3.322970056E-2
6.622766422E0,-3.982114792E-2,1.190565526E-2,2.118492126E-2,4.665050201E-2
6.627742099E0,-2.008986473E-2,2.158910036E-3,1.146507263E-2,2.323169059E-2
6.632717776E0,-1.951694489E-2,1.990377903E-3,2.556896210E-2,3.222800901E-2
6.637693453E0,-1.894772053E-2,1.131395996E-2,1.581287384E-2,2.714901070E-2
6.642669130E0,-1.373708248E-2,-7.982313633E-3,1.564788818E-2,2.229980203E-2
6.647644807E0,-8.672237396E-3,-8.174955845E-3,1.253128052E-3,1.198365280E-2
6.652620484E0,5.794167519E-3,-3.604948521E-3,-8.267402649E-3,1.071998030E-2
6.657596161E0,2.008986473E-2,-1.812444627E-2,-3.456115723E-3,2.727715076E-2
6.662571839E0,2.482068539E-2,-1.827745140E-2,-1.768493652E-2,3.553714440E-2
6.667547516E0,3.436172009E-2,-2.317140996E-2,-2.705955505E-2,4.949607628E-2
6.672523193E0,1.068592072E-2,-1.852759719E-2,-5.061340332E-2,5.494704137E-2
6.677498870E0,2.519452572E-2,-2.816168964E-2,-4.547977448E-2,5.912913644E-2
6.682474547E0,1.568710804E-2,-1.867660880E-2,-4.037094116E-2,4.716687360E-2
6.687450224E0,6.104588509E-3,-9.315446019E-3,7.451057434E-3,1.340006688E-2
6.692425901E0,1.350402832E-3,-4.831939936E-3,5.012702942E-2,5.037747820E-2
6.697401578E0,-3.262996674E-3,9.117454290E-3,5.919551849E-2,5.998236849E-2
6.702377255E0,1.813530922E-3,-5.495533347E-3,2.543258667E-2,2.608268096E-2
6.707352932E0,-2.649068832E-3,1.335507631E-2,-8.051872253E-3,1.581797319E-2
6.712328609E0,-1.187419891E-2,-1.088604331E-3,-1.276206970E-2,1.746574025E-2
6.717304286E0,-7.084012032E-3,-1.061224937E-2,-3.164196014E-2,3.411768903E-2
6.722279964E0,-1.688504219E-2,-2.011395991E-2,-3.133201599E-2,4.088240770E-2
6.727255641E0,1.592636108E-2,-2.953021228E-2,-4.999256134E-2,6.020746303E-2
6.732231318E0,5.680084229E-3,-2.933862805E-2,-6.374454498E-2,7.040160132E-2
6.737206995E0,9.918212891E-3,-4.809148610E-2,-4.891109467E-2,6.930697774E-2
6.742182672E0,1.912736893E-2,-4.295812547E-2,3.224658966E-2,5.701841221E-2
6.747158349E0,4.722952843E-3,-2.837681770E-2,8.895969391E-2,9.349533254E-2
6.752134026E0,-4.814028740E-3,-3.300707042E-2,1.699352264E-2,3.743556307E-2
6.757109703E0,-2.882385254E-2,-2.794826031E-2,-1.683025360E-1,1.730250368E-1
6.762085380E0,-3.379416466E-2,-3.650595248E-2,-4.327754974E-1,4.356252533E-1
6.767061057E0,-2.422273159E-2,-2.032352984E-2,-3.911895752E-1,3.924653747E-1
6.772036734E0,4.620671272E-3,5.731612444E-3,6.134033203E-3,9.582710866E-3
6.777012411E0,2.387917042E-2,3.096258640E-2,3.574028015E-1,3.595353377E-1
6.781988089E0,4.834532738E-3,5.006565154E-2,5.300931931E-1,5.324741642E-1
6.786963766E0,-4.860997200E-3,7.242825627E-2,5.114688873E-1,5.165945260E-1
6.791939443E0,-5.886554718E-4,5.125355721E-2,2.793741226E-1,2.840372758E-1
6.796915120E0,3.392100334E-3,1.565113664E-2,8.724117279E-2,8.869885373E-2
6.801890797E0,2.612674236E-2,-1.055462658E-2,-1.778221130E-2,3.331987166E-2
6.806866474E0,3.876423836E-2,-4.179596901E-2,-1.883478165E-1,1.967853378E-1
6.811842151E0,5.073487759E-2,-4.914252460E-2,-3.764142990E-1,3.829839945E-1
6.816817828E0,4.790043831E-2,-5.121783912E-2,-3.824224472E-1,3.887989804E-1
6.821793505E0,7.373380661E-2,-2.896355093E-2,-2.507028580E-1,2.629210614E-1
6.826769182E0,8.102297783E-2,-1.583293080E-3,-7.269191742E-2,1.088638811E-1
6.831744859E0,7.972466946E-2,2.562642097E-2,3.248691559E-2,8.982280365E-2
6.836720536E0,9.380614758E-2,4.316985607E-2,7.491779327E-2,1.275770573E-1
6.841696214E0,7.545113564E-2,4.647487402E-2,6.464385986E-2,1.096887250E-1
6.846671891E0,2.477669716E-2,4.061315954E-2,3.061008453E-2,5.657111211E-2
6.851647568E0,-6.224513054E-3,4.005366564E-2,-3.167247772E-2,5.144109776E-2
6.856623245E0,-5.131626129E-2,3.057058156E-2,-8.868789673E-2,1.069273686E-1
6.861598922E0,-8.704555035E-2,1.217441261E-2,-1.404285431E-1,1.656662907E-1
6.866574599E0,-1.087907553E-1,8.515909314E-3,-1.299457550E-1,1.696875022E-1
6.871550276E0,-9.308016300E-2,-4.366248846E-3,-9.097576141E-2,1.302289140E-1
6.876525953E0,-1.066015959E-1,-7.509648800E-3,-4.276180267E-2,1.151037221E-1
6.881501630E0,-1.110234261E-1,-5.935817957E-3,2.410888672E-2,1.137658714E-1
6.886477307E0,-1.108098030E-1,-4.496127367E-3,5.720424652E-2,1.247852292E-1
6.891452984E0,-1.059517860E-1,1.577869058E-3,9.953594208E-2,1.453811350E-1
6.896428661E0,-1.104269028E-1,2.801761031E-3,1.414909363E-1,1.795038600E-1
6.901404339E0,-1.290602684E-1,3.919631243E-3,1.451034546E-1,1.942342115E-1
6.906380016E0,-1.286466122E-1,1.901817322E-2,1.297111511E-1,1.836753235E-1
6.911355693E0,-1.000536680E-1,2.419342101E-2,1.144905090E-1,1.539614717E-1
6.916331370E0,-7.195699215E-2,1.003728807E-2,8.993911743E-2,1.156183407E-1
6.921307047E0,-4.429912567E-2,1.483966410E-2,7.511711121E-2,8.846020892E-2
6.926282724E0,-1.682066917E-2,5.057305098E-4,5.566596985E-2,5.815402715E-2
6.931258401E0,1.083135605E-3,-1.849584281E-2,3.161048889E-2,3.664003810E-2
6.936234078E0,1.424264908E-2,-1.369890571E-2,3.148269653E-2,3.717086563E-2
6.941209755E0,4.174172878E-2,-2.323228121E-2,2.183437347E-2,5.252476251E-2
6.946185432E0,5.976903439E-2,-1.848554611E-2,1.698398590E-2,6.482675885E-2
6.951161109E0,5.885457993E-2,-2.336506546E-2,3.114604950E-2,7.056815331E-2
6.956136786E0,7.239675522E-2,-3.299725056E-2,2.142238617E-2,8.239555413E-2
6.961112464E0,6.218373775E-2,-2.354250848E-2,7.019042969E-3,6.686055572E-2
6.966088141E0,6.645369530E-2,-3.785157204E-2,-2.152919769E-2,7.945024530E-2
6.971063818E0,5.164289474E-2,-4.259550571E-2,-2.608966827E-2,7.184731363E-2
6.976039495E0,4.155051708E-2,-4.724873602E-2,-3.534412384E-2,7.216713667E-2
6.981015172E0,4.563426971E-2,-3.761766851E-2,-2.075862885E-2,6.267771716E-2
6.985990849E0,3.074336052E-2,-2.802833915E-2,-1.579952240E-2,4.450131368E-2
6.990966526E0,3.027319908E-2,-2.801589668E-2,3.356933594E-3,4.138388639E-2
6.995942203E0,2.980697155E-2,-2.795240283E-2,1.285648346E-2,4.283785177E-2
7.000917880E0,1.989984512E-2,-1.365025342E-2,-1.472473145E-3,2.417646441E-2
7.005893557E0,1.957225800E-2,-9.015455842E-3,3.313064575E-3,2.180202110E-2
7.010869234E0,3.829479218E-2,-9.129300714E-3,-2.043914795E-2,4.435756991E-2
7.015844911E0,9.477615356E-3,3.634691238E-4,-3.451156616E-2,3.579113719E-2
7.020820589E0,5.228245258E-2,-4.321277142E-3,-2.949523926E-2,6.018386348E-2
7.025796266E0,4.259943962E-2,-4.167348146E-3,-3.403091431E-2,5.468255824E-2
7.030771943E0,4.239189625E-2,-1.346056163E-2,-5.277633667E-3,4.478965287E-2
7.035747620E0,4.673099518E-2,-1.793417335E-2,9.016036987E-3,5.085970317E-2
7.040723297E0,4.118013382E-2,-1.773063838E-2,-1.000308990E-2,4.593735698E-2
7.045698974E0,3.991353512E-2,-1.294012368E-2,-7.153320312E-2,8.293091243E-2
7.050674651E0,1.935780048E-2,-2.249252796E-2,-1.799964905E-1,1.824263546E-1
7.055650328E0,8.521795273E-3,-1.756641269E-2,-1.736011505E-1,1.746956190E-1
7.060626005E0,3.116703033E-2,-1.700808108E-2,-3.907775879E-2,5.279895675E-2
7.065601682E0,2.079522610E-2,-1.151424646E-2,1.227607727E-1,1.250408998E-1
7.070577359E0,6.120204926E-3,3.219977021E-3,1.739950180E-1,1.741323963E-1
7.075553036E0,5.761861801E-3,1.737126708E-2,1.251001358E-1,1.264318154E-1
7.080528714E0,1.469886303E-2,2.624699473E-2,9.089183807E-2,9.574073081E-2
7.085504391E0,3.295493126E-2,2.530239522E-2,6.173610687E-2,7.441495542E-2
7.090480068E0,8.475899696E-3,1.476636529E-2,4.230308533E-2,4.560084920E-2
7.095455745E0,-6.047725677E-3,9.277597070E-3,1.349830627E-2,1.746004197E-2
7.100431422E0,-2.024447918E-2,-6.646215916E-4,-4.358768463E-2,4.806419572E-2
7.105407099E0,-3.912258148E-2,-5.622044206E-3,-1.001949310E-1,1.077089038E-1
7.110382776E0,-2.960920334E-2,-5.732074380E-3,-1.135625839E-1,1.174990301E-1
7.115358453E0,-5.836760998E-2,-1.143813133E-3,-9.355354309E-2,1.102739844E-1
7.120334130E0,-5.369687080E-2,-1.348674297E-3,-4.521369934E-2,7.021005245E-2
7.125309807E0,-5.366110802E-2,1.744858921E-2,2.703666687E-3,5.649139397E-2
7.130285484E0,-5.331993103E-2,2.907231450E-3,2.644062042E-2,5.958668851E-2
7.135261161E0,-6.227409840E-2,1.222954690E-2,4.045677185E-2,7.526204579E-2
7.140236839E0,-6.625187397E-2,2.137191594E-2,7.333278656E-2,1.011126460E-1
7.145212516E0,-6.080389023E-2,1.610311866E-2,8.220767975E-2,1.035109951E-1
7.150188193E0,-6.500065327E-2,1.557552814E-2,8.627414703E-2,1.091371176E-1
7.155163870E0,-6.931698322E-2,5.357131362E-3,9.507846832E-2,1.177856450E-1
7.160139547E0,-9.259247780E-2,1.422420144E-2,9.431266785E-2,1.329307119E-1
7.165115224E0,-6.354296207E-2,1.341803372E-2,6.507778168E-2,9.193948731E-2
7.170090901E0,-7.752311230E-2,7.870033383E-3,5.508708954E-2,9.542723825E-2
7.175066578E0,-8.194327354E-2,7.129490376E-3,4.993438721E-2,9.622355604E-2
7.180042255E0,-5.308604240E-2,1.640215516E-3,5.432128906E-2,7.597118303E-2
7.185017984E0,-4.821169376E-2,-8.603021502E-3,6.342124939E-2,8.012886040E-2
7.189993714E0,-2.908253670E-2,1.882761717E-4,4.395008087E-2,5.270141362E-2
7.194969443E0,-3.390526772E-2,-5.396768451E-3,-2.283668518E-2,4.123356010E-2
7.199945172E0,-5.448341370E-3,-1.335904002E-3,-8.432102203E-2,8.450741873E-2
7.204920901E0,1.337683201E-2,-6.498873234E-3,-1.643066406E-1,1.649783232E-1
7.209896630E0,1.774954796E-2,-1.821205020E-3,-1.391592026E-1,1.402984209E-1
7.214872359E0,3.158414364E-2,-1.681655645E-3,-7.149028778E-2,7.817446733E-2
7.219848089E0,3.095686436E-2,-6.247013807E-3,3.747940063E-4,3.158311420E-2
7.224823818E0,5.872452259E-2,1.285950840E-2,4.316520691E-2,7.400791577E-2
7.229799547E0,2.458262444E-2,1.745265722E-2,1.911640167E-2,3.569786382E-2
7.234775276E0,3.361403942E-2,1.726540923E-2,-4.752159119E-3,3.808649391E-2
7.239751005E0,4.737210274E-2,1.716922224E-2,-1.418495178E-2,5.234607117E-2
7.244726734E0,5.161964893E-2,2.834722400E-3,-9.305953979E-3,5.252832176E-2
7.249702464E0,3.208935261E-2,-1.883313060E-3,9.778022766E-3,3.359885635E-2
7.254678193E0,4.585886002E-2,-6.613194942E-3,4.974365234E-3,4.659950320E-2
7.259653922E0,4.041743279E-2,-2.565142512E-2,2.260208130E-4,4.787082169E-2
7.264629651E0,3.507256508E-2,-2.553701401E-2,-1.398658752E-2,4.558342392E-2
7.269605380E0,2.502489090E-2,-3.492696583E-2,-4.707431793E-2,6.373483753E-2
7.274581109E0,4.834938049E-2,-3.942617774E-2,-4.665470123E-2,7.790216449E-2
7.279556839E0,3.354358673E-2,-3.909468651E-2,-4.149723053E-2,6.614821891E-2
7.284532568E0,4.735219479E-2,-3.396633267E-2,-4.113292694E-2,7.132923514E-2
7.289508297E0,3.260707855E-2,-3.843526542E-2,-1.703453064E-2,5.320400769E-2
7.294484026E0,8.590102196E-3,-2.387295663E-2,-2.647399902E-3,2.550914817E-2
7.299459755E0,2.756202221E-2,-2.378620207E-2,6.867408752E-3,3.704874870E-2
7.304435484E0,3.698003292E-2,-9.499371052E-3,1.629161835E-2,4.151117577E-2
7.309411214E0,8.280396461E-3,-2.377146482E-2,1.614570618E-2,2.990537299E-2
7.314386943E0,3.458976746E-3,-2.382610738E-2,1.771926880E-3,2.414099497E-2
7.319362672E0,1.266872883E-2,-2.393785119E-2,-2.951622009E-3,2.724388890E-2
7.324338349E0,2.603173256E-3,-2.420204878E-2,-1.235485077E-2,2.729758256E-2
7.329314026E0,1.156449318E-2,-2.916140854E-2,-7.430076599E-3,3.223866140E-2
7.334289703E0,-8.042097092E-3,-3.421998024E-2,6.955146790E-3,3.583373327E-2
7.339265380E0,-3.588438034E-3,-2.489504218E-2,6.953239441E-3,2.609573819E-2
7.344241057E0,-1.811480522E-2,-1.569893956E-2,1.169490814E-2,2.667159065E-2
7.349216734E0,-8.829712868E-3,-1.132152975E-2,1.640224457E-2,2.179849747E-2
7.354192411E0,-4.423975945E-3,-1.166509092E-2,6.831169128E-3,1.422359944E-2
7.359168089E0,-1.915132999E-2,-1.205691695E-2,6.851196289E-3,2.364490595E-2
7.364143766E0,-1.001322269E-2,-1.239432395E-2,6.869316101E-3,1.735140912E-2
7.369119443E0,-5.699872971E-3,-7.980421185E-3,2.139091492E-3,1.003749902E-2
7.374095120E0,-6.223320961E-3,-1.779119670E-2,2.202033997E-3,1.897644218E-2
7.379070797E0,-2.098810673E-2,-1.327469945E-2,-2.484321594E-3,2.495776679E-2
7.384046474E0,-1.668560505E-2,-2.304778993E-2,-2.137088776E-2,3.558545883E-2
7.389022151E0,-1.722097397E-2,-4.133209586E-3,-1.635265350E-2,2.410507504E-2
7.393997828E0,1.242160797E-3,-9.169891477E-3,-1.877784729E-3,9.442242775E-3
7.398973505E0,-1.368808746E-2,-1.886191964E-2,-6.519317627E-3,2.419994325E-2
7.403949182E0,-1.894581318E-2,-4.730671644E-3,3.117561340E-3,1.977478900E-2
7.408924859E0,-3.835511208E-2,-9.755834937E-3,-1.577377319E-3,3.960781560E-2
7.413900536E0,-2.436327934E-2,4.306018353E-3,3.262519836E-3,2.495506382E-2
7.418876214E0,-2.463126183E-2,8.753687143E-3,8.049964905E-3,2.735192923E-2
7.423851891E0,-2.484607697E-2,8.364692330E-3,8.043289185E-3,2.742243824E-2
7.428827568E0,-2.985858917E-2,1.272743940E-2,-1.569938660E-2,3.605542678E-2
7.433803245E0,-3.973126411E-2,1.225422323E-2,-2.497768402E-2,4.850385587E-2
7.438778922E0,-3.068101406E-2,1.658459008E-2,-1.991558075E-2,4.016221618E-2
7.443754599E0,-4.544746876E-2,1.878440380E-3,-5.397796631E-3,4.580542722E-2
7.448730276E0,-2.680027485E-2,-3.208160400E-3,4.243850708E-3,2.732320065E-2
7.453705953E0,-1.775312424E-2,2.028326690E-2,1.379680634E-2,3.028095443E-2
7.458681630E0,-1.822841167E-2,2.454032004E-2,-9.973526001E-3,3.215545865E-2
7.463657307E0,-4.453063011E-3,1.456104219E-2,-1.455402374E-2,2.106355447E-2
7.468632984E0,-2.418541908E-2,1.421307027E-2,9.413719177E-3,2.958993024E-2
7.473608661E0,-1.036167145E-2,2.342262864E-2,3.316116333E-2,4.190043581E-2
7.478584339E0,3.449082375E-3,8.761823177E-3,3.295707703E-2,3.427586090E-2
7.483560016E0,2.900600433E-3,1.315957308E-2,2.325820923E-2,2.687995802E-2
7.488535693E0,-7.139325142E-3,8.017182350E-3,1.364040375E-2,1.735816208E-2
7.493511370E0,1.134431362E-2,2.866506577E-3,4.110336304E-3,1.240182148E-2
7.498487047E0,-8.312821388E-3,-2.247735858E-3,2.789878845E-2,2.919756348E-2
7.503462724E0,6.848573685E-4,2.177640796E-3,2.299785614E-2,2.311087484E-2
7.508438401E0,9.417533875E-6,6.508514285E-3,-8.420944214E-4,6.562771511E-3
7.513414078E0,-1.030945778E-2,-8.146107197E-3,-1.021862030E-2,1.664524506E-2
7.518389755E0,-1.594722271E-2,-1.313047111E-2,-1.949882507E-2,2.840646692E-2
7.523365432E0,1.165032387E-2,-2.287292480E-2,-3.344154358E-2,4.215729560E-2
7.528341109E0,1.052701473E-2,-2.778567374E-2,-4.251956940E-2,5.187268535E-2
7.533316786E0,2.371108532E-2,-2.781328559E-2,-7.052612305E-2,7.943379919E-2
7.538292464E0,4.638564587E-2,-2.769386768E-2,-9.831523895E-2,1.121805004E-1
7.543268141E0,2.138519287E-2,-2.741557360E-2,-8.313941956E-2,9.011716392E-2
7.548243818E0,2.978277206E-2,-1.754699647E-2,-3.484630585E-2,4.908335388E-2
7.553219495E0,3.805923462E-2,-1.256026328E-2,8.303642273E-3,4.092940298E-2
7.558195172E0,1.767241955E-2,1.133438945E-2,5.585670471E-2,5.967205592E-2
7.563170849E0,-2.645611763E-3,2.077783644E-2,6.978702545E-2,7.286251897E-2
7.568146526E0,-1.324617863E-2,2.059446275E-2,5.035686493E-2,5.599470502E-2
7.573122203E0,-4.714608192E-3,1.577292383E-2,1.683425903E-2,2.354580501E-2
7.578097880E0,3.745913506E-3,1.647859812E-3,-2.590942383E-2,2.623062243E-2
7.583073557E0,-2.213120461E-3,1.994818449E-3,-3.979492188E-2,3.990630288E-2
7.588049234E0,1.324892044E-3,-1.661065221E-2,-3.931427002E-2,4.269989383E-2
7.593024911E0,1.908004284E-2,-3.031922877E-2,-4.358577728E-2,5.641829180E-2
7.598000589E0,1.764333248E-2,-2.967472374E-2,-3.831768036E-2,5.157636124E-2
7.602976266E0,2.586901188E-2,-3.863480687E-2,-4.619598389E-3,4.672466979E-2
7.607951943E0,5.791902542E-3,-4.747579992E-2,4.775714874E-2,6.758877842E-2
7.612927620E0,-4.365563393E-3,-3.745350242E-2,9.966945648E-2,1.065637065E-1
7.617903297E0,-9.071826935E-5,-3.236542642E-2,4.192352295E-2,5.296329704E-2
7.622878974E0,-3.869247437E-2,-4.144977033E-2,-1.387920380E-1,1.499280522E-1
7.627854651E0,-5.343449116E-2,-4.514789581E-2,-3.892164230E-1,3.954529066E-1
7.632830328E0,-5.380916595E-2,-3.834140301E-2,-3.811559677E-1,3.868402270E-1
7.637806005E0,-6.185889244E-3,-1.677839458E-2,-1.235580444E-2,2.173581500E-2
7.642781682E0,-1.134514809E-3,1.369343698E-2,3.628034592E-1,3.630635582E-1
7.647757359E0,1.352405548E-2,5.704049766E-2,5.449028015E-1,5.480470614E-1
7.652733036E0,8.556723595E-3,6.065237522E-2,5.213966370E-1,5.249822675E-1
7.657708714E0,-2.562689781E-2,5.861631036E-2,2.750272751E-1,2.823696368E-1
7.662684391E0,-7.907271385E-3,2.765236795E-2,7.828712463E-2,8.340295125E-2
7.667660068E0,9.406566620E-3,1.452550292E-3,-1.230716705E-2,1.555826979E-2
7.672635745E0,2.642154694E-2,-2.002926171E-2,-1.685972214E-1,1.718263441E-1
7.677611422E0,2.848744392E-2,-4.613117874E-2,-3.330078125E-1,3.373926841E-1
7.682587099E0,1.567685604E-2,-5.270732939E-2,-3.582668304E-1,3.624623404E-1
7.687562776E0,2.645862103E-2,-3.981164098E-2,-2.170915604E-1,2.222920848E-1
7.692538453E0,2.816390991E-2,6.631985307E-3,-8.191776276E-2,8.687755122E-2
7.697514130E0,5.951690674E-2,1.972498000E-2,1.872825623E-2,6.543763905E-2
7.702489807E0,7.779049873E-2,3.772634268E-2,3.286743164E-2,9.249273857E-2
7.707465484E0,7.819330692E-2,4.164536297E-2,3.721523285E-2,9.609111853E-2
7.712441161E0,6.996262074E-2,4.599806666E-2,-1.336097717E-3,8.373992831E-2
7.717416839E0,5.176186562E-3,5.087618530E-2,-1.113605499E-2,5.233727982E-2
7.722392516E0,-2.593290806E-2,3.723025322E-2,-5.409049988E-2,7.060021000E-2
7.727368193E0,-5.249142647E-2,2.879038453E-2,-1.061334610E-1,1.218546168E-1
7.732343870E0,-6.994211674E-2,1.606729627E-2,-1.054382324E-1,1.275432419E-1
7.737319547E0,-1.022039652E-1,1.787963510E-2,-9.516143799E-2,1.407871838E-1
7.742295224E0,-1.063661575E-1,5.513176322E-3,-3.740024567E-2,1.128846002E-1
7.747270901E0,-1.393892765E-1,-1.162104309E-2,4.842662811E-2,1.480187737E-1
7.752246578E0,-1.057081223E-1,-1.452682912E-2,1.003093719E-1,1.464486462E-1
7.757222255E0,-1.197391748E-1,-2.227230370E-2,1.042709351E-1,1.603307625E-1
7.762197932E0,-1.240032911E-1,-2.060931921E-2,8.444118500E-2,1.514327375E-1
7.767173609E0,-1.139864922E-1,-2.855922282E-2,9.326934814E-2,1.500257341E-1
7.772149286E0,-9.471058846E-2,-2.234381437E-2,8.305454254E-2,1.279351345E-1
7.777124964E0,-5.670452118E-2,-1.642882824E-2,7.769203186E-2,9.757746120E-2
7.782100641E0,-2.876889706E-2,-6.063327193E-3,7.716274261E-2,8.257422251E-2
7.787076318E0,-2.011120319E-2,-7.369965315E-4,6.240367889E-2,6.556845886E-2
7.792051995E0,2.641236782E-2,-9.809434414E-3,5.252552032E-2,5.960510434E-2
7.797027672E0,3.461134434E-2,-9.411424398E-3,2.847957611E-2,4.579963233E-2
7.802003349E0,5.698752403E-2,-1.856483519E-2,3.312683105E-2,6.848078516E-2
7.806979026E0,7.468426228E-2,-1.349861920E-2,3.295612335E-2,8.274090777E-2
7.811954703E0,4.975223541E-2,-1.332528889E-2,2.325820923E-2,5.651364923E-2
7.816930380E0,5.377566814E-2,-3.695374727E-2,1.835632324E-2,6.778168281E-2
7.821906057E0,4.841959476E-2,-4.137779772E-2,1.347541809E-2,6.510119964E-2
7.826881734E0,5.275726318E-2,-4.106083512E-2,-8.802413940E-4,6.685877522E-2
7.831857411E0,6.660711765E-2,-4.074649513E-2,-1.987171173E-2,8.057089992E-2
7.836833089E0,6.614696980E-2,-3.568628430E-2,-1.496982574E-2,7.663568479E-2
7.841808766E0,5.604052544E-2,-4.016521573E-2,-1.958465576E-2,7.167526622E-2
7.846784443E0,4.121947289E-2,-3.991618752E-2,-3.365039825E-2,6.651839050E-2
7.851760120E0,2.182483673E-2,-3.961813450E-2,-2.386474609E-2,5.114143316E-2
7.856735797E0,3.118610382E-2,-4.397563636E-2,-1.892471313E-2,5.713645450E-2
7.861711474E0,2.152740955E-2,-3.875547647E-2,-9.284973145E-3,4.529488984E-2
7.866687151E0,-2.243995667E-3,-3.353452682E-2,-1.872825623E-2,3.847528541E-2
7.871662828E0,2.571582794E-3,-2.360856533E-2,5.161285400E-3,2.430259785E-2
7.876638505E0,2.549648285E-3,-8.979260921E-3,-4.382133484E-3,1.031168885E-2
7.881614182E0,7.123112679E-3,-3.917783499E-3,9.915351868E-3,1.282193294E-2
7.886589859E0,-2.535820007E-3,-1.789249480E-2,2.408695221E-2,3.011233999E-2
7.891565536E0,1.173138618E-2,-1.281459630E-2,4.287624359E-2,4.626242065E-2
